ax,ay,az,gx,gy,gz,timestamp
-0.9331711530685425,0.8525621294975281,-2.914489507675171,0.8366440534591675,2.688123941421509,5.721508502960205,2024-04-23T16:52:04.776
-1.8560364246368408,0.2963065505027771,-2.4452478885650635,2.197950601577759,2.8242368698120117,4.228702068328857,2024-04-23T16:52:04.796
-2.5555708408355713,-0.23392069339752197,-1.9451439380645752,3.537367820739746,2.1854164600372314,2.054514169692993,2024-04-23T16:52:04.817
-2.7981066703796387,-0.587302029132843,-1.313267469406128,4.561222553253174,1.421249270439148,-0.37405890226364136,2024-04-23T16:52:04.833
-2.5753817558288574,-0.5771441459655762,-0.5108363032341003,5.013571739196777,0.9185241460800171,-2.282299518585205,2024-04-23T16:52:04.853
-2.1247806549072266,-0.30934906005859375,0.19563788175582886,4.908550262451172,0.5849155187606812,-3.7447800636291504,2024-04-23T16:52:04.873
-1.596740961074829,0.07168245315551758,0.9806394577026367,4.037214279174805,0.4515705108642578,-4.616762161254883,2024-04-23T16:52:04.893
-0.8772632479667664,0.45641782879829407,1.67936110496521,2.5013177394866943,0.5610459446907043,-4.655857563018799,2024-04-23T16:52:04.913
-0.30095773935317993,0.649564266204834,2.003617763519287,1.0225775241851807,0.16665735840797424,-4.2609429359436035,2024-04-23T16:52:04.933
0.04363889992237091,0.7087509632110596,2.006962776184082,-0.11838170140981674,-0.7813920378684998,-3.857983350753784,2024-04-23T16:52:04.953
0.2439855933189392,0.7798361778259277,2.077455520629883,-1.4376726150512695,-1.6339983940124512,-3.5256500244140625,2024-04-23T16:52:04.973
0.5124610066413879,0.8959531784057617,1.791374921798706,-2.637593984603882,-1.5495307445526123,-2.895909309387207,2024-04-23T16:52:04.993
0.9397357702255249,1.0415724515914917,1.508154273033142,-3.377056360244751,-2.067456007003784,-2.0516092777252197,2024-04-23T16:52:05.013
1.3039660453796387,1.1914418935775757,1.2616149187088013,-4.147898197174072,-3.039177656173706,-0.9897146224975586,2024-04-23T16:52:05.033
1.5699211359024048,1.6101140975952148,0.8979872465133667,-4.923398494720459,-3.54557466506958,0.576920747756958,2024-04-23T16:52:05.053
1.8756365776062012,1.9898561239242554,-0.10966026782989502,-4.652530193328857,-4.026432514190674,2.7165732383728027,2024-04-23T16:52:05.073
1.93594491481781,2.161236524581909,-1.6339423656463623,-2.939232110977173,-3.345414638519287,5.123525619506836,2024-04-23T16:52:05.093
1.3273041248321533,2.023841142654419,-2.6248106956481934,-1.1426419019699097,-1.0026593208312988,6.8286848068237305,2024-04-23T16:52:05.113
0.156316876411438,1.6099228858947754,-2.805258274078369,0.23608045279979706,0.9402020573616028,7.27756404876709,2024-04-23T16:52:05.133
-1.205277919769287,0.9855166673660278,-2.368734836578369,1.1895149946212769,1.5715266466140747,6.198570251464844,2024-04-23T16:52:05.153
-2.42409086227417,0.13427212834358215,-2.081489086151123,2.4886221885681152,1.089525818824768,4.018918991088867,2024-04-23T16:52:05.173
-3.0658459663391113,-0.613383412361145,-1.8737730979919434,3.9613254070281982,0.6627791523933411,1.3435956239700317,2024-04-23T16:52:05.197
-3.077355146408081,-0.8726772665977478,-1.3562560081481934,5.1256103515625,0.519512414932251,-1.1166585683822632,2024-04-23T16:52:05.217
-2.6278538703918457,-0.5804311037063599,-0.6693562865257263,5.843087196350098,0.6627869606018066,-2.9522523880004883,2024-04-23T16:52:05.237
-2.0894100666046143,-0.05197179317474365,0.23108595609664917,5.923861503601074,0.6107164025306702,-4.176284313201904,2024-04-23T16:52:05.257
-1.4565378427505493,0.3939793109893799,1.1520905494689941,5.098993301391602,0.07834161818027496,-4.863714218139648,2024-04-23T16:52:05.277
-0.7881935834884644,0.6778700351715088,1.9438813924789429,3.4586374759674072,-1.0161173343658447,-4.9722394943237305,2024-04-23T16:52:05.297
-0.1767243593931198,0.8693593740463257,2.4322993755340576,0.9067701101303101,-1.5307729244232178,-4.628294467926025,2024-04-23T16:52:05.317
0.29908066987991333,1.0279264450073242,2.4658498764038086,-1.5169438123703003,-1.0823010206222534,-3.905759572982788,2024-04-23T16:52:05.337
0.7721394300460815,1.1574933528900146,2.073674440383911,-3.0563418865203857,-1.1703139543533325,-2.928723096847534,2024-04-23T16:52:05.357
1.1994839906692505,1.21382474899292,1.817913293838501,-4.240858554840088,-1.6639468669891357,-1.8107433319091797,2024-04-23T16:52:05.377
1.4572153091430664,1.302659034729004,1.669472575187683,-5.690465450286865,-2.1019725799560547,-0.6912192702293396,2024-04-23T16:52:05.397
1.5324530601501465,1.6211539506912231,1.2926404476165771,-6.701109886169434,-2.659231424331665,0.4926080107688904,2024-04-23T16:52:05.417
1.6995538473129272,1.8893859386444092,0.027116894721984863,-5.965847492218018,-3.2806715965270996,2.0570449829101562,2024-04-23T16:52:05.436
1.8406814336776733,1.9960048198699951,-1.5559287071228027,-3.7819693088531494,-2.8582024574279785,4.272249698638916,2024-04-23T16:52:05.456
1.4794963598251343,1.9684828519821167,-2.563066005706787,-1.454746961593628,-1.6022026538848877,6.283921718597412,2024-04-23T16:52:05.477
0.41613367199897766,1.7370840311050415,-2.9978370666503906,0.4035487174987793,0.500654399394989,7.031219482421875,2024-04-23T16:52:05.497
-1.0513694286346436,1.164618730545044,-2.7212510108947754,1.7540780305862427,1.350266456604004,6.030727386474609,2024-04-23T16:52:05.516
-2.316701650619507,0.3115254044532776,-2.2784276008605957,3.2711360454559326,0.8893750905990601,3.6016414165496826,2024-04-23T16:52:05.536
-2.7099218368530273,-0.3248789608478546,-1.8610682487487793,4.755615234375,0.334700345993042,1.135952115058899,2024-04-23T16:52:05.556
-2.5918867588043213,-0.5566961765289307,-1.116215705871582,5.382628440856934,0.3575706481933594,-0.8330429792404175,2024-04-23T16:52:05.576
-2.2586376667022705,-0.4404420852661133,-0.3349834084510803,5.511813640594482,0.457060307264328,-2.3008666038513184,2024-04-23T16:52:05.596
-1.8500422239303589,-0.11955451965332031,0.40628868341445923,5.181065559387207,0.41218072175979614,-3.365868091583252,2024-04-23T16:52:05.616
-1.4138585329055786,0.18725958466529846,1.1807360649108887,4.211906433105469,0.2014610469341278,-4.105807781219482,2024-04-23T16:52:05.636
-0.8794409036636353,0.4385806918144226,1.8273628950119019,2.7763850688934326,-0.37325289845466614,-4.3666090965271,2024-04-23T16:52:05.656
-0.20799864828586578,0.6333612203598022,2.1885571479797363,1.0741208791732788,-1.083986520767212,-4.017040729522705,2024-04-23T16:52:05.676
0.2652786374092102,0.7262760996818542,2.309086561203003,-0.8213433623313904,-0.9859312772750854,-3.3731555938720703,2024-04-23T16:52:05.696
0.6734093427658081,0.8316484093666077,2.131052017211914,-2.2929940223693848,-0.9428727626800537,-2.5681941509246826,2024-04-23T16:52:05.716
0.9373918771743774,0.8934201002120972,1.9005072116851807,-3.2797691822052,-1.5356054306030273,-1.7717257738113403,2024-04-23T16:52:05.736
1.1618294715881348,0.9842091798782349,1.6749095916748047,-4.380553245544434,-2.2776455879211426,-0.9491411447525024,2024-04-23T16:52:05.756
1.273951530456543,1.3364070653915405,1.1495518684387207,-5.084194660186768,-2.777906656265259,0.06516825407743454,2024-04-23T16:52:05.776
1.4601248502731323,1.691758394241333,0.011015236377716064,-4.68523645401001,-2.980752944946289,1.373153805732727,2024-04-23T16:52:05.796
1.6497843265533447,1.8369978666305542,-1.1214544773101807,-3.4646120071411133,-2.8966786861419678,3.015606641769409,2024-04-23T16:52:05.816
1.5212377309799194,1.7926892042160034,-1.92074453830719,-2.0146985054016113,-1.9984840154647827,4.6229424476623535,2024-04-23T16:52:05.836
0.9282369613647461,1.4606667757034302,-2.3680152893066406,-0.5323213934898376,-0.7868961691856384,5.79911994934082,2024-04-23T16:52:05.856
-0.028154462575912476,1.0035090446472168,-2.422090530395508,0.5878580808639526,0.3460589647293091,6.007177829742432,2024-04-23T16:52:05.876
-1.3845523595809937,0.3963720202445984,-2.106938600540161,1.297677755355835,1.0609763860702515,4.848810195922852,2024-04-23T16:52:05.896
-2.3295207023620605,-0.2437201589345932,-2.077815532684326,2.767483711242676,0.9856492877006531,2.8895232677459717,2024-04-23T16:52:05.916
-2.5795657634735107,-0.5701372623443604,-1.9583964347839355,4.442370891571045,0.7217704653739929,0.8607189059257507,2024-04-23T16:52:05.936
-2.514455795288086,-0.5751183032989502,-1.161790132522583,5.366265296936035,0.3403678238391876,-1.0563544034957886,2024-04-23T16:52:05.956
-2.207827091217041,-0.2943761944770813,-0.3163260221481323,5.628585338592529,0.07850202918052673,-2.563762903213501,2024-04-23T16:52:05.976
-1.7068402767181396,0.08381739258766174,0.5160691738128662,5.137868404388428,-0.1341732293367386,-3.577611207962036,2024-04-23T16:52:05.995
-1.1494876146316528,0.4217759072780609,1.2639541625976562,3.94657564163208,-0.1880129873752594,-4.072195053100586,2024-04-23T16:52:06.016
-0.7250401973724365,0.6644304394721985,1.8173128366470337,2.43038010597229,-0.3435947000980377,-4.323293209075928,2024-04-23T16:52:06.035
-0.21323390305042267,0.8320627808570862,2.0552902221679688,0.9307799339294434,-0.7694369554519653,-4.208963871002197,2024-04-23T16:52:06.056
0.33829617500305176,0.9261577129364014,2.210505962371826,-0.6282802820205688,-1.3215126991271973,-3.686408758163452,2024-04-23T16:52:06.076
0.8249156475067139,0.9524421691894531,2.040891647338867,-1.924520492553711,-1.8467912673950195,-2.8393008708953857,2024-04-23T16:52:06.095
1.2281721830368042,0.9980769157409668,1.7514169216156006,-3.1684365272521973,-1.9294359683990479,-1.6767919063568115,2024-04-23T16:52:06.115
1.4921287298202515,1.0838124752044678,1.4118084907531738,-4.248407363891602,-2.339790105819702,-0.4403873383998871,2024-04-23T16:52:06.135
1.5430786609649658,1.2944128513336182,0.9066337943077087,-5.065642833709717,-2.674004554748535,0.9407002925872803,2024-04-23T16:52:06.155
1.554875135421753,1.5846350193023682,0.149849534034729,-5.321519374847412,-2.509552001953125,2.568074941635132,2024-04-23T16:52:06.175
1.542667269706726,1.6815400123596191,-1.1087007522583008,-4.21859073638916,-2.0849483013153076,4.335943222045898,2024-04-23T16:52:06.195
1.2440710067749023,1.5457417964935303,-2.233609199523926,-2.1699724197387695,-1.1305949687957764,5.807176113128662,2024-04-23T16:52:06.215
0.4564026892185211,1.289973497390747,-2.801053047180176,-0.2064569890499115,0.2846083343029022,6.389811038970947,2024-04-23T16:52:06.235
-0.7700425386428833,0.9500504732131958,-2.5054774284362793,1.0408052206039429,1.10919988155365,5.43656587600708,2024-04-23T16:52:06.255
-1.8666166067123413,0.2936238944530487,-1.98158860206604,2.0820772647857666,0.9576426148414612,3.46366810798645,2024-04-23T16:52:06.275
-2.20269513130188,-0.2501983940601349,-1.7285346984863281,3.380706787109375,0.4666706621646881,1.6073131561279297,2024-04-23T16:52:06.295
-2.197744607925415,-0.5336158871650696,-1.2828114032745361,4.302409648895264,0.5545540452003479,0.095977284014225,2024-04-23T16:52:06.315
-2.1339287757873535,-0.49648627638816833,-0.6473894119262695,4.819633483886719,0.7999122738838196,-1.303696870803833,2024-04-23T16:52:06.335
-1.9651583433151245,-0.2421950399875641,0.07639884948730469,5.087419033050537,0.2712734043598175,-2.7207932472229004,2024-04-23T16:52:06.355
-1.6185230016708374,-0.0032956302165985107,0.8833597898483276,4.6924004554748535,-0.6102023124694824,-3.935131072998047,2024-04-23T16:52:06.375
-1.0423204898834229,0.35549303889274597,1.5932083129882812,3.274803876876831,-1.1837481260299683,-4.491860866546631,2024-04-23T16:52:06.395
-0.3644813001155853,0.5355703830718994,1.8789865970611572,1.5851762294769287,-1.0419410467147827,-4.259862899780273,2024-04-23T16:52:06.415
0.061232879757881165,0.6345537304878235,2.0231800079345703,-0.10475175827741623,-1.0254199504852295,-3.8349268436431885,2024-04-23T16:52:06.435
0.30458828806877136,0.6947422623634338,1.9624924659729004,-1.4958816766738892,-1.3093472719192505,-3.3914549350738525,2024-04-23T16:52:06.455
0.5887858867645264,0.7701922059059143,1.6899863481521606,-2.5171985626220703,-1.6696808338165283,-2.85593581199646,2024-04-23T16:52:06.475
0.9178454875946045,0.8634825944900513,1.5019690990447998,-3.6827471256256104,-1.8428623676300049,-2.15360426902771,2024-04-23T16:52:06.495
1.1771371364593506,1.129526138305664,1.2558939456939697,-4.815946102142334,-1.8728866577148438,-1.2578072547912598,2024-04-23T16:52:06.515
1.4038161039352417,1.4959746599197388,0.8875105381011963,-5.550622940063477,-2.3933584690093994,-0.014802493155002594,2024-04-23T16:52:06.535
1.5554535388946533,1.7192800045013428,0.20303112268447876,-5.457365989685059,-3.1389236450195312,1.5563589334487915,2024-04-23T16:52:06.555
1.6550840139389038,1.7783534526824951,-1.038449764251709,-4.082613945007324,-2.902740240097046,3.5806925296783447,2024-04-23T16:52:06.575
1.5830119848251343,1.7168238162994385,-2.411492109298706,-1.7924383878707886,-1.1952930688858032,5.832467079162598,2024-04-23T16:52:06.595
0.9174486398696899,1.616289496421814,-2.669895887374878,-0.13334497809410095,0.4070591330528259,7.341728210449219,2024-04-23T16:52:06.615
-0.48045745491981506,1.3585014343261719,-2.1132054328918457,0.5677558183670044,1.1417676210403442,6.950321197509766,2024-04-23T16:52:06.634
-1.980008840560913,0.5958014726638794,-1.7514257431030273,1.3860589265823364,0.8529810309410095,4.535595893859863,2024-04-23T16:52:06.655
-2.630643367767334,-0.24695245921611786,-1.7474761009216309,2.9789249897003174,0.002857223153114319,1.8706532716751099,2024-04-23T16:52:06.674
-2.256693124771118,-0.5640732049942017,-1.6752941608428955,4.406582832336426,0.1712762862443924,0.2686649560928345,2024-04-23T16:52:06.694
-2.016885280609131,-0.5110015869140625,-1.0362021923065186,4.98065710067749,0.9083524942398071,-0.8724319338798523,2024-04-23T16:52:06.714
-1.9990662336349487,-0.28848347067832947,-0.130268394947052,4.997748851776123,0.9655789732933044,-2.1723082065582275,2024-04-23T16:52:06.734
-1.7739051580429077,-0.05877397954463959,0.6163152456283569,4.661861419677734,0.34490567445755005,-3.444293737411499,2024-04-23T16:52:06.754
-1.2657784223556519,0.1672230362892151,1.258133888244629,3.749255657196045,-0.4103032946586609,-4.232291221618652,2024-04-23T16:52:06.774
-0.6527763605117798,0.4013174772262573,1.748636245727539,2.3462300300598145,-1.0445845127105713,-4.375961780548096,2024-04-23T16:52:06.794
-0.11731328070163727,0.5649152994155884,1.9036762714385986,0.7110991477966309,-0.9489218592643738,-4.032827854156494,2024-04-23T16:52:06.814
0.3092517852783203,0.720073938369751,1.8929017782211304,-0.8387035131454468,-0.7226565480232239,-3.4589035511016846,2024-04-23T16:52:06.834
0.7198725342750549,0.8182815909385681,1.7955713272094727,-2.0800673961639404,-1.185854196548462,-2.7669851779937744,2024-04-23T16:52:06.854
1.0570173263549805,0.9827883243560791,1.5458426475524902,-3.1965584754943848,-1.5953896045684814,-1.8636664152145386,2024-04-23T16:52:06.874
1.3751389980316162,1.225685954093933,1.0604356527328491,-3.793552875518799,-1.998119592666626,-0.7188602685928345,2024-04-23T16:52:06.894
1.6782244443893433,1.4360219240188599,0.2043694257736206,-3.6441078186035156,-2.371474504470825,0.7546250224113464,2024-04-23T16:52:06.914
1.8432930707931519,1.5568113327026367,-0.6855576634407043,-2.806185007095337,-2.403073787689209,2.555919885635376,2024-04-23T16:52:06.934
1.7479890584945679,1.5038007497787476,-1.679692029953003,-1.3500360250473022,-1.5738195180892944,4.38216495513916,2024-04-23T16:52:06.954
1.0277674198150635,1.2153594493865967,-2.024458885192871,-0.4092356860637665,-0.24168696999549866,5.390111446380615,2024-04-23T16:52:06.974
-0.06032511591911316,0.7110466957092285,-1.8872145414352417,0.26036712527275085,0.7071414589881897,5.31404447555542,2024-04-23T16:52:06.994
-1.0124235153198242,0.21598228812217712,-1.8959804773330688,1.1973198652267456,1.1642173528671265,4.402297019958496,2024-04-23T16:52:07.014
-1.7621182203292847,-0.25593146681785583,-1.7719390392303467,2.5914664268493652,0.8127356171607971,2.8510565757751465,2024-04-23T16:52:07.034
-2.23378849029541,-0.6072378754615784,-1.375429630279541,3.8106446266174316,0.30138710141181946,0.8549087047576904,2024-04-23T16:52:07.054
-2.2340893745422363,-0.6589054465293884,-0.7274956107139587,4.34332799911499,0.22652411460876465,-0.8757140636444092,2024-04-23T16:52:07.074
-1.8960485458374023,-0.4341050386428833,-0.04221588373184204,4.31809139251709,0.2390216588973999,-2.1451618671417236,2024-04-23T16:52:07.094
-1.4895914793014526,-0.13190731406211853,0.601529598236084,3.80989408493042,0.24901379644870758,-3.028286933898926,2024-04-23T16:52:07.114
-1.0173091888427734,0.13322800397872925,1.2112218141555786,2.901951551437378,-0.11229279637336731,-3.509214162826538,2024-04-23T16:52:07.134
-0.5280107259750366,0.3576105833053589,1.6186461448669434,1.7301133871078491,-0.6045887470245361,-3.5938191413879395,2024-04-23T16:52:07.153
-0.09587804973125458,0.5330439209938049,1.806591272354126,0.28132301568984985,-0.8239527344703674,-3.342884063720703,2024-04-23T16:52:07.173
0.2780337333679199,0.6576130390167236,1.8708035945892334,-1.1916447877883911,-0.8547981381416321,-2.855685234069824,2024-04-23T16:52:07.193
0.6117913126945496,0.7463344931602478,1.5986237525939941,-2.156895637512207,-1.0237503051757812,-2.2786710262298584,2024-04-23T16:52:07.213
0.8737790584564209,0.8163176774978638,1.3612340688705444,-2.7926175594329834,-1.6997907161712646,-1.8002958297729492,2024-04-23T16:52:07.233
1.1461856365203857,0.9683599472045898,1.0155730247497559,-3.235023260116577,-2.319953203201294,-1.1305228471755981,2024-04-23T16:52:07.253
1.477370023727417,1.2158771753311157,0.4718526601791382,-3.45674204826355,-2.570374011993408,0.06406411528587341,2024-04-23T16:52:07.273
1.7828935384750366,1.4111428260803223,-0.15568435192108154,-3.389200210571289,-2.394638776779175,1.7714869976043701,2024-04-23T16:52:07.293
1.8314075469970703,1.4463425874710083,-1.103060245513916,-2.665778875350952,-1.3633036613464355,3.772634744644165,2024-04-23T16:52:07.313
1.4762786626815796,1.3858383893966675,-1.8790977001190186,-1.6929337978363037,0.15247279405593872,5.563506603240967,2024-04-23T16:52:07.333
0.7282706499099731,1.2397217750549316,-2.1925368309020996,-0.40456652641296387,0.6286962628364563,6.4697675704956055,2024-04-23T16:52:07.353
-0.5678378343582153,0.8675740957260132,-2.16204833984375,0.6490986943244934,0.9893642663955688,5.7831268310546875,2024-04-23T16:52:07.373
-1.7844398021697998,0.23207063972949982,-1.8518011569976807,1.839306354522705,0.31926602125167847,3.9365105628967285,2024-04-23T16:52:07.393
-2.3585312366485596,-0.3723619878292084,-1.6793304681777954,3.3914101123809814,-0.3525284230709076,1.9005275964736938,2024-04-23T16:52:07.413
-2.508286237716675,-0.6874592900276184,-1.2440674304962158,4.20343542098999,0.0985381230711937,0.11200925707817078,2024-04-23T16:52:07.433
-2.436354160308838,-0.664479672908783,-0.5125567317008972,4.461543560028076,0.6558138132095337,-1.457886815071106,2024-04-23T16:52:07.453
-2.1621429920196533,-0.41316068172454834,0.22855126857757568,4.528515815734863,0.4156876504421234,-2.8943493366241455,2024-04-23T16:52:07.473
-1.6417651176452637,-0.030680090188980103,0.9520787000656128,4.024962425231934,-0.2431745082139969,-3.9456775188446045,2024-04-23T16:52:07.493
-0.883184015750885,0.3597612679004669,1.5432536602020264,2.7765109539031982,-0.7071861028671265,-4.162124156951904,2024-04-23T16:52:07.513
-0.24300435185432434,0.585629403591156,1.965080976486206,0.8511656522750854,-0.7053477764129639,-3.850754737854004,2024-04-23T16:52:07.533
0.10780158638954163,0.6945299506187439,2.072345733642578,-1.0113627910614014,-0.45914241671562195,-3.460744857788086,2024-04-23T16:52:07.553
0.4127125144004822,0.7735341191291809,1.7736685276031494,-2.0789856910705566,-0.6373629570007324,-3.1002166271209717,2024-04-23T16:52:07.573
0.8369269967079163,0.8726210594177246,1.330535650253296,-2.465147018432617,-1.4360969066619873,-2.552757978439331,2024-04-23T16:52:07.593
1.1728509664535522,1.0435631275177002,1.0899499654769897,-3.047484874725342,-1.8417637348175049,-1.762427568435669,2024-04-23T16:52:07.613
1.5660048723220825,1.2413432598114014,0.7169083952903748,-3.6710357666015625,-1.9610824584960938,-0.5446982383728027,2024-04-23T16:52:07.633
1.8150043487548828,1.400583028793335,0.04659855365753174,-3.689924716949463,-1.9433445930480957,0.944137692451477,2024-04-23T16:52:07.653
1.9399374723434448,1.456447720527649,-0.9928342700004578,-2.6177327632904053,-1.7352144718170166,2.7582688331604004,2024-04-23T16:52:07.673
1.7199243307113647,1.3997559547424316,-1.8120801448822021,-1.3528287410736084,-0.8929324746131897,4.406039714813232,2024-04-23T16:52:07.693
0.6251712441444397,1.0219007730484009,-1.7841790914535522,-0.6896008253097534,-0.29747503995895386,4.764508247375488,2024-04-23T16:52:07.713
-0.46355268359184265,0.4148051142692566,-1.7500896453857422,0.20736001431941986,-0.3134627342224121,4.184150218963623,2024-04-23T16:52:07.733
-1.2321031093597412,-0.10981839150190353,-1.8993620872497559,1.5068508386611938,0.1181703582406044,3.376145601272583,2024-04-23T16:52:07.753
-1.9331549406051636,-0.5537614226341248,-1.6452603340148926,2.4966061115264893,0.8617957830429077,2.0393800735473633,2024-04-23T16:52:07.773
-2.3739166259765625,-0.834496021270752,-0.9951724410057068,3.139491319656372,0.9062467217445374,0.18231461942195892,2024-04-23T16:52:07.792
-2.339054584503174,-0.7779585123062134,-0.33229005336761475,3.4736809730529785,0.7869045734405518,-1.5368436574935913,2024-04-23T16:52:07.812
-1.8197699785232544,-0.44236451387405396,0.22567695379257202,3.5666937828063965,0.5454080104827881,-2.60046648979187,2024-04-23T16:52:07.832
-1.2333533763885498,-0.06231433153152466,0.8699220418930054,3.060621738433838,0.15654127299785614,-3.146329402923584,2024-04-23T16:52:07.852
-0.7069756984710693,0.209660142660141,1.467533826828003,1.8546446561813354,-0.12325239181518555,-3.23091983795166,2024-04-23T16:52:07.872
-0.24418556690216064,0.3799329400062561,1.7410151958465576,0.40700075030326843,-0.33065566420555115,-3.0597915649414062,2024-04-23T16:52:07.892
0.024730443954467773,0.48721086978912354,1.7758641242980957,-0.9209938049316406,-0.4030993580818176,-2.841759443283081,2024-04-23T16:52:07.912
0.3538987338542938,0.5912169218063354,1.5389330387115479,-1.8216315507888794,-0.5658854842185974,-2.5383479595184326,2024-04-23T16:52:07.932
0.6925750970840454,0.6781993508338928,1.1601953506469727,-2.0896270275115967,-1.202349305152893,-2.2542953491210938,2024-04-23T16:52:07.952
1.1062111854553223,0.9023880958557129,0.7711515426635742,-2.2660272121429443,-1.8510403633117676,-1.6598714590072632,2024-04-23T16:52:07.972
1.6877968311309814,1.2883131504058838,0.43900763988494873,-2.8678183555603027,-1.8208017349243164,-0.27850040793418884,2024-04-23T16:52:07.992
2.119274139404297,1.6367266178131104,-0.10224610567092896,-3.1360137462615967,-1.4995957612991333,1.6510053873062134,2024-04-23T16:52:08.012
2.1451141834259033,1.6892647743225098,-0.9793143272399902,-2.3812272548675537,-1.182662844657898,3.5953965187072754,2024-04-23T16:52:08.032
1.5953761339187622,1.4602313041687012,-1.592763900756836,-1.2535070180892944,-0.5994410514831543,4.851344585418701,2024-04-23T16:52:08.052
0.524549126625061,0.9842625260353088,-1.5633056163787842,-0.35767799615859985,-0.47223442792892456,5.103506565093994,2024-04-23T16:52:08.072
-0.4458455741405487,0.441908597946167,-1.520981788635254,0.360668808221817,-0.19894380867481232,4.777365684509277,2024-04-23T16:52:08.092
-1.3262722492218018,-0.04961099848151207,-1.5009734630584717,1.0246933698654175,0.44700515270233154,4.03397798538208,2024-04-23T16:52:08.112
-2.1197922229766846,-0.5491091012954712,-1.2988808155059814,1.65712308883667,0.9444098472595215,2.5193142890930176,2024-04-23T16:52:08.132
-2.5656471252441406,-0.8813480138778687,-1.0388281345367432,2.5010766983032227,0.9017245173454285,0.5160725712776184,2024-04-23T16:52:08.152
-2.3939640522003174,-0.808779239654541,-0.6531973481178284,3.3366079330444336,0.5168351531028748,-1.209867238998413,2024-04-23T16:52:08.172
-1.9641907215118408,-0.5195035934448242,-0.12149947881698608,3.6836304664611816,0.38101935386657715,-2.387617588043213,2024-04-23T16:52:08.192
-1.3980549573898315,-0.19603323936462402,0.625978410243988,3.129486083984375,0.28315338492393494,-2.9160783290863037,2024-04-23T16:52:08.212
-0.8640182614326477,0.03502345085144043,1.3550570011138916,1.6907598972320557,0.13591554760932922,-3.090240001678467,2024-04-23T16:52:08.232
-0.48410648107528687,0.17083993554115295,1.665083885192871,0.2523794174194336,0.07235612720251083,-3.121131420135498,2024-04-23T16:52:08.252
-0.14303481578826904,0.30373188853263855,1.5009257793426514,-0.5679470896720886,-0.22166016697883606,-3.136679172515869,2024-04-23T16:52:08.272
0.1500786691904068,0.4702703058719635,1.3607442378997803,-1.068570852279663,-0.6073598265647888,-3.132598638534546,2024-04-23T16:52:08.292
0.5602640509605408,0.6644374132156372,1.2073290348052979,-1.4405683279037476,-1.0520257949829102,-2.933382987976074,2024-04-23T16:52:08.311
1.0805225372314453,0.9126719236373901,1.1242327690124512,-1.9751520156860352,-1.707814335823059,-2.357550859451294,2024-04-23T16:52:08.331
1.6337865591049194,1.2449579238891602,0.8872751593589783,-2.7190134525299072,-1.890023112297058,-1.0867782831192017,2024-04-23T16:52:08.351
2.064988374710083,1.5326902866363525,0.35708558559417725,-3.214407444000244,-1.620751142501831,0.8265750408172607,2024-04-23T16:52:08.371
2.1879658699035645,1.6781271696090698,-0.2395976185798645,-3.21208119392395,-1.569898009300232,2.8617591857910156,2024-04-23T16:52:08.391
1.6358619928359985,1.612568736076355,-1.0667853355407715,-2.297518491744995,-1.316587209701538,4.204516410827637,2024-04-23T16:52:08.411
0.6450487375259399,1.217502474784851,-1.7786072492599487,-0.9633774161338806,-0.7548629641532898,4.525371551513672,2024-04-23T16:52:08.431
-0.21059173345565796,0.6892729997634888,-1.9877198934555054,0.5425951480865479,-0.7168145775794983,4.304042339324951,2024-04-23T16:52:08.451
-0.8626837730407715,0.2159515917301178,-2.130645751953125,2.015493392944336,-0.21515581011772156,3.987072706222534,2024-04-23T16:52:08.471
-1.7644562721252441,-0.2770829498767853,-1.6789801120758057,2.533306360244751,0.9220215678215027,2.916006088256836,2024-04-23T16:52:08.491
-2.614149570465088,-0.8144741654396057,-1.1155850887298584,2.957811117172241,1.3339803218841553,0.9004255533218384,2024-04-23T16:52:08.511
-2.6153173446655273,-0.9214072227478027,-0.7507257461547852,3.8605804443359375,0.8685311079025269,-1.0870100259780884,2024-04-23T16:52:08.531
-2.168586492538452,-0.6973671913146973,-0.17086446285247803,4.161211013793945,0.748969554901123,-2.4264233112335205,2024-04-23T16:52:08.551
-1.5322251319885254,-0.34961917996406555,0.7221997380256653,3.431550979614258,0.6008926630020142,-3.058133363723755,2024-04-23T16:52:08.571
-0.9271202683448792,-0.022981315851211548,1.4353196620941162,1.9564425945281982,0.5012795925140381,-3.1904616355895996,2024-04-23T16:52:08.591
-0.4590212404727936,0.21378669142723083,1.7271840572357178,0.4224820137023926,0.37808218598365784,-3.156787395477295,2024-04-23T16:52:08.611
-0.17583848536014557,0.3515505790710449,1.5589488744735718,-0.167670339345932,-0.20294496417045593,-3.224074125289917,2024-04-23T16:52:08.631
0.07600700855255127,0.5151498317718506,1.0993356704711914,-0.04033545404672623,-1.0450999736785889,-3.297650098800659,2024-04-23T16:52:08.651
0.386816143989563,0.7122390270233154,1.096792221069336,-0.32553139328956604,-1.7474998235702515,-3.1259725093841553,2024-04-23T16:52:08.671
0.8116318583488464,0.9565250873565674,1.2738006114959717,-1.510509729385376,-1.9082980155944824,-2.547760009765625,2024-04-23T16:52:08.691
1.3129065036773682,1.195858359336853,1.0187830924987793,-2.8183982372283936,-1.4170788526535034,-1.3465083837509155,2024-04-23T16:52:08.711
1.881037950515747,1.4555467367172241,0.37366950511932373,-3.396047830581665,-1.0341235399246216,0.40310367941856384,2024-04-23T16:52:08.731
2.0739452838897705,1.5541294813156128,-0.4625433683395386,-2.9480433464050293,-1.2145085334777832,2.221541166305542,2024-04-23T16:52:08.751
1.8175052404403687,1.4957242012023926,-1.0975778102874756,-2.074768543243408,-0.9659425020217896,3.7229042053222656,2024-04-23T16:52:08.771
1.040184497833252,1.1672552824020386,-1.4565632343292236,-1.2736923694610596,-0.3943631052970886,4.450587749481201,2024-04-23T16:52:08.791
0.2354867160320282,0.6898103952407837,-1.616722822189331,-0.2645374834537506,-0.16300296783447266,4.533454418182373,2024-04-23T16:52:08.811
-0.5107819437980652,0.23664367198944092,-1.6365537643432617,0.7034416198730469,0.11524983495473862,4.071977615356445,2024-04-23T16:52:08.827
-1.3382526636123657,-0.2590830326080322,-1.437882423400879,1.4734055995941162,0.48998790979385376,3.0650436878204346,2024-04-23T16:52:08.847
-1.9973716735839844,-0.6902982592582703,-1.1300432682037354,2.1952414512634277,0.7094320058822632,1.4233341217041016,2024-04-23T16:52:08.867
-2.182737350463867,-0.878031313419342,-0.7421267628669739,2.794969320297241,0.6724226474761963,-0.2590726613998413,2024-04-23T16:52:08.887
-1.9243862628936768,-0.7412741184234619,-0.303600549697876,3.256876230239868,0.4665026068687439,-1.5402719974517822,2024-04-23T16:52:08.907
-1.4933528900146484,-0.45321404933929443,0.2660881280899048,3.17197585105896,0.23536093533039093,-2.3153555393218994,2024-04-23T16:52:08.927
-1.0279579162597656,-0.16046571731567383,0.8317501544952393,2.5037827491760254,0.05345701426267624,-2.637784957885742,2024-04-23T16:52:08.947
-0.6174776554107666,0.049683451652526855,1.2546439170837402,1.4779478311538696,-0.18923845887184143,-2.692629337310791,2024-04-23T16:52:08.967
-0.31722912192344666,0.18528640270233154,1.4915692806243896,0.31818339228630066,-0.5106404423713684,-2.632035970687866,2024-04-23T16:52:08.987
-0.08763653039932251,0.3035271465778351,1.5495333671569824,-0.8337535262107849,-0.5647189021110535,-2.5501961708068848,2024-04-23T16:52:09.007
0.15486882627010345,0.4204336404800415,1.3953857421875,-1.5318100452423096,-0.7681871652603149,-2.482698917388916,2024-04-23T16:52:09.027
0.43304169178009033,0.6158525943756104,0.9958915114402771,-1.4810817241668701,-1.4066870212554932,-2.3894529342651367,2024-04-23T16:52:09.047
0.8228610754013062,0.86176598072052,0.6087769269943237,-1.30522882938385,-1.9652514457702637,-1.956766128540039,2024-04-23T16:52:09.067
1.3761919736862183,1.102584719657898,0.5394691228866577,-2.146711587905884,-1.6889889240264893,-0.7881093621253967,2024-04-23T16:52:09.087
1.8450011014938354,1.35207200050354,0.3927342891693115,-3.2414846420288086,-0.9691804051399231,0.9689207673072815,2024-04-23T16:52:09.107
2.0433499813079834,1.4787319898605347,-0.4631512761116028,-3.0678772926330566,-0.5092503428459167,2.940577268600464,2024-04-23T16:52:09.127
1.7087368965148926,1.3552054166793823,-1.4139841794967651,-1.8858513832092285,-0.3473740220069885,4.33259916305542,2024-04-23T16:52:09.147
0.702200174331665,0.8941027522087097,-1.5417646169662476,-0.9989970326423645,-0.2692716419696808,4.548334121704102,2024-04-23T16:52:09.166
-0.3736293315887451,0.3535037934780121,-1.5914784669876099,-0.3398444652557373,0.005900293122977018,4.048074245452881,2024-04-23T16:52:09.188
-1.0319336652755737,-0.09565864503383636,-1.8219082355499268,0.7995537519454956,0.46969735622406006,3.367765426635742,2024-04-23T16:52:09.208
-1.63936185836792,-0.45200979709625244,-1.7495431900024414,1.9255732297897339,0.8950990438461304,2.1326303482055664,2024-04-23T16:52:09.227
-2.154411792755127,-0.7187937498092651,-1.192798376083374,2.6348936557769775,0.9040428400039673,0.3536040484905243,2024-04-23T16:52:09.247
-2.1387243270874023,-0.7522780895233154,-0.5733782649040222,2.9678986072540283,0.8842035531997681,-1.1340534687042236,2024-04-23T16:52:09.267
-1.7039985656738281,-0.53238844871521,-0.04320406913757324,3.024961471557617,0.7429978251457214,-2.0207881927490234,2024-04-23T16:52:09.287
-1.2435201406478882,-0.25941962003707886,0.5475645661354065,2.531923294067383,0.5747787952423096,-2.484766960144043,2024-04-23T16:52:09.307
-0.9069427251815796,-0.02481171488761902,1.1104471683502197,1.5012568235397339,0.42301449179649353,-2.787630796432495,2024-04-23T16:52:09.327
-0.5871173739433289,0.1903277039527893,1.2344298362731934,0.7924754619598389,0.12189263850450516,-2.930626392364502,2024-04-23T16:52:09.347
-0.23568250238895416,0.39080750942230225,1.0370148420333862,0.6004952788352966,-0.2922729253768921,-2.8613133430480957,2024-04-23T16:52:09.367
0.05805714428424835,0.526024341583252,1.0694329738616943,0.12484188377857208,-0.6300240755081177,-2.683161735534668,2024-04-23T16:52:09.387
0.30477312207221985,0.6453028917312622,1.168858528137207,-0.6599613428115845,-0.7650110125541687,-2.3956010341644287,2024-04-23T16:52:09.407
0.5854742527008057,0.6994065642356873,1.0492405891418457,-1.343959927558899,-0.9498100280761719,-2.0959386825561523,2024-04-23T16:52:09.427
0.9185448288917542,0.7738702297210693,0.7925289273262024,-1.8474814891815186,-1.138540267944336,-1.5290402173995972,2024-04-23T16:52:09.447
1.3477652072906494,0.9217890501022339,0.4902995228767395,-2.4231581687927246,-0.9184706211090088,-0.46831879019737244,2024-04-23T16:52:09.467
1.6317812204360962,1.0193541049957275,0.12820839881896973,-2.8351247310638428,-0.7532208561897278,0.8657339215278625,2024-04-23T16:52:09.487
1.6801071166992188,1.0337274074554443,-0.33728694915771484,-2.779356002807617,-0.6791874170303345,2.227433443069458,2024-04-23T16:52:09.507
1.4525480270385742,0.9629335999488831,-0.9465237259864807,-2.159867525100708,-0.3915940225124359,3.3019981384277344,2024-04-23T16:52:09.527
0.9693576097488403,0.7376225590705872,-1.4528194665908813,-1.028471827507019,-0.24003036320209503,3.9100873470306396,2024-04-23T16:52:09.547
0.2594103515148163,0.40759122371673584,-1.546170949935913,-0.059451594948768616,-0.23116685450077057,3.880476474761963,2024-04-23T16:52:09.567
-0.601508378982544,0.026288487017154694,-1.4941015243530273,0.6625464558601379,0.41711392998695374,3.329751491546631,2024-04-23T16:52:09.587
-1.247674584388733,-0.3004150390625,-1.4805395603179932,1.5265071392059326,0.9336153864860535,2.3916122913360596,2024-04-23T16:52:09.607
-1.7618145942687988,-0.6153345704078674,-1.160844087600708,2.3002471923828125,0.9307661652565002,0.9425474405288696,2024-04-23T16:52:09.627
-1.910449504852295,-0.7254242897033691,-0.7452024221420288,2.9312548637390137,0.7201204299926758,-0.5202314853668213,2024-04-23T16:52:09.647
-1.7240409851074219,-0.5402908325195312,-0.32195019721984863,3.4199721813201904,0.5044776201248169,-1.65516197681427,2024-04-23T16:52:09.667
-1.4123791456222534,-0.2492797076702118,0.20907235145568848,3.3960089683532715,0.36378249526023865,-2.446711778640747,2024-04-23T16:52:09.687
-1.0116877555847168,0.02896377444267273,0.7978175282478333,2.7460663318634033,0.18784284591674805,-2.8035666942596436,2024-04-23T16:52:09.706
-0.5907154679298401,0.2594117224216461,1.226647138595581,1.6945114135742188,0.023351065814495087,-2.8398730754852295,2024-04-23T16:52:09.727
-0.2669490873813629,0.385765016078949,1.5271852016448975,0.46038639545440674,-0.2120058387517929,-2.8063385486602783,2024-04-23T16:52:09.746
0.0439189076423645,0.4659160077571869,1.616129755973816,-0.7490419149398804,-0.4164885878562927,-2.6698389053344727,2024-04-23T16:52:09.766
0.4403240978717804,0.6016795635223389,1.6268713474273682,-1.8501920700073242,-0.6418262124061584,-2.3362746238708496,2024-04-23T16:52:09.786
0.8174047470092773,0.7588123083114624,1.3390060663223267,-2.228762149810791,-1.0889582633972168,-1.8691433668136597,2024-04-23T16:52:09.806
1.2152694463729858,0.8812394738197327,0.8154048323631287,-1.8411529064178467,-1.8456825017929077,-1.1276459693908691,2024-04-23T16:52:09.826
1.5218958854675293,1.0026586055755615,0.530876874923706,-1.9242665767669678,-2.1281111240386963,0.018087295815348625,2024-04-23T16:52:09.846
1.7344732284545898,1.0844265222549438,0.6110807657241821,-3.249091625213623,-1.570957899093628,1.6148265600204468,2024-04-23T16:52:09.866
1.7750695943832397,1.1886759996414185,0.24626260995864868,-4.456380367279053,-0.7841618061065674,3.4075491428375244,2024-04-23T16:52:09.886
1.3865818977355957,1.2322226762771606,-0.883777379989624,-4.234809875488281,-0.2730924189090729,4.705870151519775,2024-04-23T16:52:09.906
0.3613138794898987,1.0023874044418335,-2.147252082824707,-2.291563034057617,-0.07014700025320053,4.685251712799072,2024-04-23T16:52:09.926
-0.7211908102035522,0.5663296580314636,-2.8722028732299805,0.4104863107204437,-0.4625013768672943,3.6355643272399902,2024-04-23T16:52:09.946
-1.4587152004241943,0.10580722987651825,-2.7130043506622314,2.545658826828003,-0.15935760736465454,2.3561737537384033,2024-04-23T16:52:09.966
-1.8099032640457153,-0.25470712780952454,-2.146156072616577,3.6123945713043213,0.9019823670387268,1.1934397220611572,2024-04-23T16:52:09.986
-1.9526275396347046,-0.46194007992744446,-1.2017881870269775,3.9015870094299316,1.4916218519210815,-0.06101737916469574,2024-04-23T16:52:10.006
-1.896138310432434,-0.44795987010002136,-0.38364851474761963,3.937993288040161,1.5028114318847656,-1.22758150100708,2024-04-23T16:52:10.026
-1.5176869630813599,-0.2631516754627228,0.19968074560165405,3.9235427379608154,1.0793851613998413,-2.04148006439209,2024-04-23T16:52:10.046
-1.0820181369781494,-0.017317622900009155,0.7409682869911194,3.4534800052642822,0.6304181218147278,-2.4499282836914062,2024-04-23T16:52:10.066
-0.6972005367279053,0.17727628350257874,1.2790729999542236,2.299424409866333,0.36931857466697693,-2.5386366844177246,2024-04-23T16:52:10.086
-0.36674386262893677,0.26243430376052856,1.695887804031372,0.7815802693367004,0.11194644123315811,-2.4770560264587402,2024-04-23T16:52:10.106
-0.12153617292642593,0.3003106415271759,1.6705498695373535,-0.28869250416755676,-0.1352747529745102,-2.3806731700897217,2024-04-23T16:52:10.126
0.048409201204776764,0.3412693738937378,1.418150782585144,-0.7106868028640747,-0.5161885619163513,-2.36979603767395,2024-04-23T16:52:10.146
0.2553821802139282,0.43186578154563904,1.2268028259277344,-0.9000267386436462,-1.100295066833496,-2.3348114490509033,2024-04-23T16:52:10.166
0.5021770000457764,0.541163444519043,1.2079640626907349,-1.3470497131347656,-1.459097146987915,-2.0818166732788086,2024-04-23T16:52:10.186
0.8268795013427734,0.6255930662155151,1.1814002990722656,-2.134882926940918,-1.5208171606063843,-1.598633050918579,2024-04-23T16:52:10.206
1.224158525466919,0.7889649271965027,1.072265863418579,-3.1019957065582275,-1.710955262184143,-0.7414976358413696,2024-04-23T16:52:10.226
1.6743786334991455,1.017737627029419,0.7582449913024902,-4.090259075164795,-2.3276660442352295,0.6959097385406494,2024-04-23T16:52:10.246
1.9795113801956177,1.4536482095718384,-0.036986708641052246,-4.233713150024414,-3.052875518798828,2.9437599182128906,2024-04-23T16:52:10.266
1.5051146745681763,1.691287636756897,-1.5048909187316895,-3.349400758743286,-1.4987674951553345,4.597678184509277,2024-04-23T16:52:10.286
0.155563086271286,1.3146603107452393,-2.5547678470611572,-1.5798249244689941,0.11814690381288528,4.415408134460449,2024-04-23T16:52:10.306
-0.7735218405723572,0.7106853723526001,-2.898365020751953,0.9167608022689819,0.10965613275766373,3.429413080215454,2024-04-23T16:52:10.326
-1.226412296295166,0.1940022110939026,-2.608670234680176,2.805588722229004,0.47167035937309265,2.540632724761963,2024-04-23T16:52:10.345
-1.6324431896209717,-0.21085301041603088,-1.788543462753296,3.637497901916504,1.3031224012374878,1.4531038999557495,2024-04-23T16:52:10.365
-2.0083794593811035,-0.4598977565765381,-0.9636858701705933,3.899475574493408,1.7088574171066284,0.08509881794452667,2024-04-23T16:52:10.385
-1.9400224685668945,-0.4255552887916565,-0.2440548539161682,4.052659511566162,1.640290379524231,-1.140472412109375,2024-04-23T16:52:10.405
-1.6003648042678833,-0.30252376198768616,0.40140700340270996,3.8765804767608643,1.1968698501586914,-2.1265766620635986,2024-04-23T16:52:10.425
-1.0913293361663818,-0.09264302253723145,1.0018560886383057,3.354860305786133,0.48241573572158813,-2.680908679962158,2024-04-23T16:52:10.445
-0.5916146636009216,0.1205034852027893,1.5013586282730103,2.2823123931884766,-0.03684106469154358,-2.863978624343872,2024-04-23T16:52:10.465
-0.17212064564228058,0.21642151474952698,1.8478972911834717,0.9316244721412659,-0.515659511089325,-2.821941375732422,2024-04-23T16:52:10.485
0.18526437878608704,0.28113123774528503,1.935030221939087,-0.27821987867355347,-0.8978539109230042,-2.588366985321045,2024-04-23T16:52:10.505
0.5066179037094116,0.3964114785194397,1.7957069873809814,-1.2508726119995117,-1.435425043106079,-2.342308282852173,2024-04-23T16:52:10.525
0.7698284387588501,0.5542365908622742,1.6282353401184082,-2.1184518337249756,-2.1029653549194336,-1.8597697019577026,2024-04-23T16:52:10.545
1.1915514469146729,0.8646165132522583,1.2477669715881348,-2.687331199645996,-2.4330742359161377,-0.8093631863594055,2024-04-23T16:52:10.565
1.539584994316101,1.1467058658599854,0.5742813944816589,-3.0096545219421387,-2.5357723236083984,0.5968361496925354,2024-04-23T16:52:10.585
1.6996186971664429,1.4107153415679932,0.045749008655548096,-3.428046703338623,-2.2870397567749023,2.201092481613159,2024-04-23T16:52:10.605
1.4780771732330322,1.6246352195739746,-0.6962859034538269,-3.2126240730285645,-1.6994140148162842,3.7226903438568115,2024-04-23T16:52:10.625
0.9467172622680664,1.569836139678955,-1.7989344596862793,-1.9991633892059326,-0.7644288539886475,4.6456427574157715,2024-04-23T16:52:10.645
0.026106983423233032,1.099104881286621,-2.369162082672119,-0.41209113597869873,-0.0006393617950379848,4.688826560974121,2024-04-23T16:52:10.665
-0.842413067817688,0.5038064122200012,-2.391441822052002,1.0871219635009766,0.7957938313484192,4.140168190002441,2024-04-23T16:52:10.685
-1.7828339338302612,-0.13552628457546234,-1.9749269485473633,2.435974597930908,0.6261955499649048,2.6667122840881348,2024-04-23T16:52:10.705
-2.4507267475128174,-0.6888872385025024,-1.386232614517212,3.4641687870025635,0.4336338937282562,0.599709689617157,2024-04-23T16:52:10.725
-2.377955436706543,-0.8125994801521301,-0.8664126396179199,4.172327518463135,0.7495695948600769,-0.9956300854682922,2024-04-23T16:52:10.745
-1.9980573654174805,-0.6140215396881104,-0.20410871505737305,4.4036455154418945,0.9588594436645508,-2.166282892227173,2024-04-23T16:52:10.765
-1.6233073472976685,-0.33562329411506653,0.6654820442199707,3.9236512184143066,0.7100515961647034,-3.14202618598938,2024-04-23T16:52:10.785
-1.0650006532669067,-0.06367531418800354,1.3308587074279785,2.834033489227295,0.07706587016582489,-3.6542305946350098,2024-04-23T16:52:10.805
-0.44528281688690186,0.1451755166053772,1.8057570457458496,1.1820430755615234,-0.36848223209381104,-3.7159998416900635,2024-04-23T16:52:10.825
0.03658445179462433,0.30770325660705566,1.9697986841201782,-0.492939829826355,-0.4770449101924896,-3.479921340942383,2024-04-23T16:52:10.845
0.337820827960968,0.48626554012298584,1.7389934062957764,-1.3138597011566162,-0.8123952746391296,-3.142641305923462,2024-04-23T16:52:10.865
0.6605736017227173,0.6603862643241882,1.375617265701294,-1.6954277753829956,-1.6195993423461914,-2.737457513809204,2024-04-23T16:52:10.885
0.926024317741394,0.7905953526496887,1.3611855506896973,-2.4916462898254395,-2.3078818321228027,-2.0730912685394287,2024-04-23T16:52:10.905
1.2710851430892944,0.9334906339645386,1.2232170104980469,-3.569929838180542,-2.5340542793273926,-1.0382764339447021,2024-04-23T16:52:10.924
1.6092023849487305,1.2596995830535889,0.6934555172920227,-4.187934875488281,-2.236541271209717,0.6388906240463257,2024-04-23T16:52:10.944
1.8073915243148804,1.590919017791748,-0.20716536045074463,-3.7832391262054443,-1.9790689945220947,2.6745591163635254,2024-04-23T16:52:10.964
1.5419964790344238,1.7889690399169922,-1.0588936805725098,-2.6224169731140137,-1.6961803436279297,4.060629844665527,2024-04-23T16:52:10.984
0.5943429470062256,1.6554673910140991,-1.4498605728149414,-1.674775242805481,-1.3684800863265991,4.17177152633667,2024-04-23T16:52:11.004
-0.07703176140785217,1.285616397857666,-1.7386837005615234,-0.44265079498291016,-1.1842678785324097,4.037729740142822,2024-04-23T16:52:11.024
-0.25480684638023376,0.7889459729194641,-2.342028856277466,1.3076543807983398,-0.19616912305355072,4.426289081573486,2024-04-23T16:52:11.044
-0.9177833795547485,0.2611052691936493,-2.078198194503784,2.0785369873046875,1.2995853424072266,4.208053112030029,2024-04-23T16:52:11.064
-2.026109218597412,-0.3164234459400177,-1.2766895294189453,2.4194064140319824,1.6795275211334229,2.540790319442749,2024-04-23T16:52:11.084
-2.604377269744873,-0.7508525848388672,-0.867986798286438,3.2594432830810547,1.1583611965179443,0.30440932512283325,2024-04-23T16:52:11.104
-2.354564905166626,-0.7727876901626587,-0.548297643661499,4.158085346221924,0.867775022983551,-1.404490351676941,2024-04-23T16:52:11.124
-1.860177993774414,-0.5150237083435059,0.05046868324279785,4.405223369598389,0.8096972107887268,-2.4992501735687256,2024-04-23T16:52:11.144
-1.3657395839691162,-0.2119956612586975,0.9183273911476135,3.74961256980896,0.33294546604156494,-3.2406651973724365,2024-04-23T16:52:11.164
-0.8934590220451355,-0.011031925678253174,1.584970474243164,2.2864432334899902,-0.02950112335383892,-3.618424892425537,2024-04-23T16:52:11.184
-0.3315528333187103,0.1576131284236908,2.046283483505249,0.43863990902900696,-0.5116680860519409,-3.5900113582611084,2024-04-23T16:52:11.204
0.17980420589447021,0.3236769735813141,2.140543222427368,-1.2496861219406128,-1.0088950395584106,-3.374704599380493,2024-04-23T16:52:11.224
0.6421439051628113,0.4945649206638336,1.8381938934326172,-2.1738061904907227,-1.7257499694824219,-2.8840818405151367,2024-04-23T16:52:11.244
1.1169272661209106,0.7301487326622009,1.3793269395828247,-2.549447536468506,-2.3326656818389893,-1.9569206237792969,2024-04-23T16:52:11.264
1.498895525932312,0.9928131103515625,0.9063557386398315,-2.6283681392669678,-2.8176016807556152,-0.5970834493637085,2024-04-23T16:52:11.284
1.7508480548858643,1.2319307327270508,0.6565934419631958,-3.2372801303863525,-2.8106038570404053,1.1680498123168945,2024-04-23T16:52:11.304
1.7409805059432983,1.5276886224746704,0.4426245093345642,-4.496443748474121,-2.0826032161712646,2.9347147941589355,2024-04-23T16:52:11.324
1.3413479328155518,1.8450462818145752,-0.4072415232658386,-4.483160018920898,-1.535905361175537,4.1808695793151855,2024-04-23T16:52:11.344
0.6560318470001221,1.8075882196426392,-2.09794282913208,-2.2569668292999268,-1.231075406074524,4.746034622192383,2024-04-23T16:52:11.364
-0.003874063491821289,1.4111089706420898,-3.2527408599853516,0.8433354496955872,-0.7001638412475586,4.6019086837768555,2024-04-23T16:52:11.384
-0.9135821461677551,0.7430896759033203,-3.134398937225342,3.0080933570861816,0.3160940408706665,3.891117811203003,2024-04-23T16:52:11.404
-1.6470433473587036,0.14945149421691895,-2.290286064147949,3.786301374435425,1.7083446979522705,2.813356399536133,2024-04-23T16:52:11.424
-2.2885732650756836,-0.35135021805763245,-1.3037296533584595,4.162740707397461,1.9701954126358032,1.143139123916626,2024-04-23T16:52:11.444
-2.352543830871582,-0.50746750831604,-0.6149426698684692,4.672517776489258,1.292326807975769,-0.550346314907074,2024-04-23T16:52:11.464
-2.1130521297454834,-0.4111346900463104,-0.036562323570251465,4.937532424926758,1.141548752784729,-1.9741144180297852,2024-04-23T16:52:11.484
-1.660820722579956,-0.1355184018611908,0.6777125597000122,4.6001811027526855,0.7676986455917358,-2.9087228775024414,2024-04-23T16:52:11.503
-1.1157945394515991,0.09335586428642273,1.4267330169677734,3.4122462272644043,0.3368385136127472,-3.3957207202911377,2024-04-23T16:52:11.523
-0.5637955665588379,0.20874738693237305,1.9917148351669312,1.5225470066070557,0.13716569542884827,-3.382734775543213,2024-04-23T16:52:11.543
-0.055693358182907104,0.302503764629364,2.1766703128814697,-0.22917555272579193,-0.2934282124042511,-3.1987264156341553,2024-04-23T16:52:11.563
0.22854742407798767,0.3638657331466675,1.9051668643951416,-1.0533219575881958,-1.0360325574874878,-3.0453901290893555,2024-04-23T16:52:11.583
0.5896183252334595,0.3928932547569275,1.6041340827941895,-1.5997562408447266,-2.0007200241088867,-2.668659210205078,2024-04-23T16:52:11.603
0.9151926636695862,0.5055121183395386,1.5102267265319824,-2.437795877456665,-2.4449081420898438,-2.065822124481201,2024-04-23T16:52:11.623
1.1998287439346313,0.7471191883087158,1.3293713331222534,-3.5228488445281982,-2.663576602935791,-1.157821536064148,2024-04-23T16:52:11.643
1.5062313079833984,1.1446735858917236,0.9887916445732117,-4.547962188720703,-2.3891208171844482,0.32902973890304565,2024-04-23T16:52:11.663
1.733832836151123,1.6076276302337646,0.12631630897521973,-4.772042751312256,-1.7733697891235352,2.1239259243011475,2024-04-23T16:52:11.683
1.6422042846679688,1.9140477180480957,-0.818235456943512,-3.8144092559814453,-1.828141212463379,3.7354722023010254,2024-04-23T16:52:11.703
1.2264680862426758,1.9492610692977905,-1.7202296257019043,-1.9951897859573364,-1.6230703592300415,4.912502288818359,2024-04-23T16:52:11.723
0.4990389347076416,1.673592448234558,-2.194714069366455,-0.15133702754974365,-1.0225253105163574,5.309350490570068,2024-04-23T16:52:11.743
-0.33506739139556885,1.084151029586792,-2.0471959114074707,0.8847309947013855,-0.26661354303359985,5.1820149421691895,2024-04-23T16:52:11.763
-1.0860652923583984,0.4291843771934509,-1.7532192468643188,1.4520201683044434,0.7181131839752197,4.612180233001709,2024-04-23T16:52:11.783
-1.9563297033309937,-0.16701850295066833,-1.4883038997650146,2.1206796169281006,1.2954013347625732,3.19981050491333,2024-04-23T16:52:11.803
-2.657458543777466,-0.679506242275238,-1.1481225490570068,2.962470293045044,1.0171830654144287,0.9878398180007935,2024-04-23T16:52:11.823
-2.7402114868164062,-0.8446424603462219,-0.7193767428398132,3.728808879852295,0.7715703248977661,-1.1756885051727295,2024-04-23T16:52:11.843
-2.347939968109131,-0.6793535947799683,-0.21506953239440918,4.228682518005371,0.5221061706542969,-2.8577401638031006,2024-04-23T16:52:11.863
-1.731062889099121,-0.2679409086704254,0.41068345308303833,4.214992523193359,0.2049698531627655,-3.851447582244873,2024-04-23T16:52:11.883
-1.1650999784469604,0.0935564935207367,1.0356061458587646,3.479257106781006,-0.022801922634243965,-4.432431697845459,2024-04-23T16:52:11.903
-0.617019772529602,0.31002727150917053,1.5245954990386963,2.2898170948028564,-0.5393409729003906,-4.700169086456299,2024-04-23T16:52:11.923
-0.0433344691991806,0.5220564603805542,1.7883453369140625,0.8972166776657104,-1.2106226682662964,-4.516700267791748,2024-04-23T16:52:11.943
0.538260281085968,0.6783651113510132,1.9341119527816772,-0.8880643248558044,-1.6247920989990234,-3.8667304515838623,2024-04-23T16:52:11.963
0.9865766167640686,0.8453665375709534,1.8419392108917236,-2.612154960632324,-1.6085346937179565,-2.9753270149230957,2024-04-23T16:52:11.983
1.3740334510803223,1.0483288764953613,1.3817275762557983,-3.353194236755371,-2.11777925491333,-1.7919440269470215,2024-04-23T16:52:12.003
1.717431664466858,1.2014942169189453,0.6812100410461426,-3.2595927715301514,-2.6947522163391113,-0.33279404044151306,2024-04-23T16:52:12.023
1.8242523670196533,1.3211842775344849,0.18603014945983887,-3.19423246383667,-2.5671803951263428,1.3237838745117188,2024-04-23T16:52:12.043
1.9064970016479492,1.539955735206604,-0.29333990812301636,-3.164285182952881,-2.2588467597961426,3.4405062198638916,2024-04-23T16:52:12.063
1.5896193981170654,1.8082232475280762,-0.6954947710037231,-2.9362587928771973,-2.023287057876587,5.128603935241699,2024-04-23T16:52:12.082
0.5051162838935852,1.7198725938796997,-1.653233528137207,-1.8291945457458496,-0.5196045637130737,5.551342487335205,2024-04-23T16:52:12.103
-0.4006834030151367,1.2082337141036987,-2.6790196895599365,0.4604410231113434,0.7682379484176636,5.320050239562988,2024-04-23T16:52:12.122
-1.1738615036010742,0.6687707901000977,-2.649186611175537,2.4254236221313477,1.1280792951583862,4.517411708831787,2024-04-23T16:52:12.143
-2.033479690551758,-0.003699773922562599,-1.8568739891052246,3.2990188598632812,1.2154319286346436,2.8956665992736816,2024-04-23T16:52:12.162
-2.559433937072754,-0.5674101710319519,-1.2597362995147705,3.8868234157562256,1.3282803297042847,0.936468780040741,2024-04-23T16:52:12.182
-2.5375723838806152,-0.7228326797485352,-0.7212005257606506,4.183430194854736,1.4755152463912964,-0.8432517051696777,2024-04-23T16:52:12.202
-2.248056411743164,-0.5551432371139526,-0.09659045934677124,4.374845504760742,1.2727408409118652,-2.318838357925415,2024-04-23T16:52:12.222
-1.7465492486953735,-0.2203432023525238,0.5201162099838257,4.281886100769043,0.7575299739837646,-3.404712438583374,2024-04-23T16:52:12.242
-1.2071152925491333,0.09792879223823547,1.1532847881317139,3.4782378673553467,0.2439301759004593,-4.09857177734375,2024-04-23T16:52:12.262
-0.5893609523773193,0.33790990710258484,1.6848392486572266,2.0178236961364746,-0.19101668894290924,-4.274290561676025,2024-04-23T16:52:12.282
-0.034945279359817505,0.48563826084136963,1.9951353073120117,0.4614502489566803,-0.7033334970474243,-4.1580915451049805,2024-04-23T16:52:12.302
0.3678627610206604,0.5643042325973511,1.9365557432174683,-0.7609425187110901,-1.3658103942871094,-3.761803150177002,2024-04-23T16:52:12.322
0.7987043857574463,0.636850893497467,1.7606233358383179,-1.8025554418563843,-2.0730209350585938,-3.0537588596343994,2024-04-23T16:52:12.342
1.2242389917373657,0.7528511881828308,1.3653422594070435,-2.5501341819763184,-2.5015835762023926,-1.866647720336914,2024-04-23T16:52:12.362
1.5299805402755737,0.9822218418121338,1.104661464691162,-3.5665693283081055,-2.489962339401245,-0.31639721989631653,2024-04-23T16:52:12.382
1.6721067428588867,1.1896965503692627,0.7428914308547974,-4.492684364318848,-2.421921730041504,1.2755320072174072,2024-04-23T16:52:12.402
1.6964049339294434,1.516944408416748,-0.3058684468269348,-3.6984918117523193,-2.2332162857055664,2.9184465408325195,2024-04-23T16:52:12.422
1.373134970664978,1.5930967330932617,-1.5490976572036743,-1.7988393306732178,-1.5746415853500366,4.077683925628662,2024-04-23T16:52:12.442
0.6482749581336975,1.4759281873703003,-1.8170478343963623,-0.45457425713539124,-1.020728588104248,4.432514667510986,2024-04-23T16:52:12.462
-0.0700097382068634,1.10744047164917,-1.6296156644821167,0.25714755058288574,-0.4677999019622803,4.319511413574219,2024-04-23T16:52:12.482
-0.6867386102676392,0.5276076793670654,-1.714454174041748,0.8380227088928223,0.5086649656295776,4.040737152099609,2024-04-23T16:52:12.502
-1.3103065490722656,-0.050096094608306885,-1.6381031274795532,1.3563305139541626,1.7864571809768677,3.3335068225860596,2024-04-23T16:52:12.522
-2.04620623588562,-0.5440335869789124,-1.368793249130249,2.1860013008117676,2.1331963539123535,1.6765693426132202,2024-04-23T16:52:12.542
-2.3338208198547363,-0.7150287628173828,-1.0636258125305176,3.4032578468322754,1.3631141185760498,-0.24044303596019745,2024-04-23T16:52:12.562
-2.0561916828155518,-0.5653029680252075,-0.5184074640274048,4.340726375579834,0.46183744072914124,-1.8197612762451172,2024-04-23T16:52:12.582
-1.6375499963760376,-0.25411999225616455,0.17026770114898682,4.293386459350586,0.2683192491531372,-2.8830599784851074,2024-04-23T16:52:12.601
-1.1260098218917847,0.02578642964363098,0.9513255953788757,3.2380077838897705,0.2743639051914215,-3.377136468887329,2024-04-23T16:52:12.622
-0.5608958005905151,0.2291167974472046,1.5166478157043457,1.735141396522522,0.18923117220401764,-3.40120792388916,2024-04-23T16:52:12.641
-0.09526732563972473,0.3052418828010559,1.7638514041900635,0.31610432267189026,-0.16064730286598206,-3.2492074966430664,2024-04-23T16:52:12.661
0.2383788824081421,0.34822824597358704,1.8074312210083008,-0.8030692934989929,-0.8360216617584229,-3.0931289196014404,2024-04-23T16:52:12.681
0.59245765209198,0.40533870458602905,1.6734495162963867,-1.5334221124649048,-1.8317854404449463,-2.776695489883423,2024-04-23T16:52:12.701
0.9387648105621338,0.46779534220695496,1.440110206604004,-2.0824520587921143,-2.777707815170288,-2.1878082752227783,2024-04-23T16:52:12.721
1.223879098892212,0.6367117762565613,1.2144153118133545,-2.827505588531494,-3.056419849395752,-1.0765957832336426,2024-04-23T16:52:12.741
1.5513273477554321,0.8662033081054688,0.9430583119392395,-3.7184879779815674,-2.922419309616089,0.6194551587104797,2024-04-23T16:52:12.761
1.8592783212661743,1.26212739944458,0.36167335510253906,-4.359770774841309,-2.430791139602661,2.911210775375366,2024-04-23T16:52:12.781
1.7073676586151123,1.7491971254348755,-0.31662309169769287,-4.173730373382568,-2.1568408012390137,4.79192590713501,2024-04-23T16:52:12.801
0.891636848449707,1.9987201690673828,-1.6426082849502563,-2.496196746826172,-1.019584059715271,5.3621721267700195,2024-04-23T16:52:12.823
-0.20289647579193115,1.6698994636535645,-2.5097484588623047,-0.31398260593414307,0.03441035374999046,4.542112827301025,2024-04-23T16:52:12.840
-0.6977172493934631,1.0155673027038574,-2.521467685699463,1.8030359745025635,-0.44132891297340393,3.859698534011841,2024-04-23T16:52:12.860
-0.9920798540115356,0.39599066972732544,-1.9990395307540894,2.7009365558624268,0.323066383600235,3.521651268005371,2024-04-23T16:52:12.880
-1.7654106616973877,-0.20440085232257843,-1.4856401681900024,2.593376398086548,2.4521286487579346,2.5914127826690674,2024-04-23T16:52:12.900
-2.5427157878875732,-0.6597201228141785,-0.9575861692428589,2.640942096710205,3.1226327419281006,0.7214382290840149,2024-04-23T16:52:12.920
-2.5485103130340576,-0.8091549873352051,-0.5252322554588318,3.423468589782715,2.0718088150024414,-1.2736661434173584,2024-04-23T16:52:12.940
-2.061262607574463,-0.535356879234314,-0.12993425130844116,4.3189897537231445,0.7726073861122131,-2.780195951461792,2024-04-23T16:52:12.960
-1.5042705535888672,-0.09754061698913574,0.4416261315345764,4.4688944816589355,0.1903848946094513,-3.6948037147521973,2024-04-23T16:52:12.980
-0.9709504842758179,0.26584985852241516,1.1601510047912598,3.5461323261260986,-0.04630323871970177,-4.129899024963379,2024-04-23T16:52:13.000
-0.40782302618026733,0.44603538513183594,1.8693275451660156,1.85457444190979,-0.55488520860672,-4.21263313293457,2024-04-23T16:52:13.020
0.253246545791626,0.5392521023750305,2.1783642768859863,-0.07201658934354782,-1.1081831455230713,-3.7605910301208496,2024-04-23T16:52:13.040
0.8321633338928223,0.6655638217926025,2.0128469467163086,-1.5565240383148193,-1.5424920320510864,-2.886303424835205,2024-04-23T16:52:13.060
1.2507712841033936,0.7622068524360657,1.6129508018493652,-2.4245493412017822,-2.3127074241638184,-1.811747431755066,2024-04-23T16:52:13.080
1.5429368019104004,0.9354480504989624,1.0846171379089355,-3.059584379196167,-2.467531442642212,-0.35962697863578796,2024-04-23T16:52:13.100
1.7362630367279053,1.132846713066101,0.5781698226928711,-3.750293016433716,-1.9850454330444336,1.4041011333465576,2024-04-23T16:52:13.120
1.7721058130264282,1.3468384742736816,-0.09150958061218262,-3.683448553085327,-1.617651104927063,3.1561665534973145,2024-04-23T16:52:13.140
1.5300614833831787,1.4277758598327637,-1.1124639511108398,-2.540004253387451,-1.1232998371124268,4.579284191131592,2024-04-23T16:52:13.160
0.6435814499855042,1.2024915218353271,-1.8267507553100586,-1.3570247888565063,0.100827157497406,4.929873466491699,2024-04-23T16:52:13.183
-0.6259545683860779,0.7529798746109009,-2.0545878410339355,-0.12782956659793854,0.598838210105896,3.9867734909057617,2024-04-23T16:52:13.203
-1.3513914346694946,0.1270289570093155,-2.17482852935791,1.532585620880127,0.6345645785331726,2.715040683746338,2024-04-23T16:52:13.223
-1.8159945011138916,-0.31614404916763306,-1.9811770915985107,2.9210758209228516,1.144980788230896,1.2714520692825317,2024-04-23T16:52:13.243
-2.1360416412353516,-0.5523000359535217,-1.2970620393753052,3.669490337371826,1.2859137058258057,-0.3554953634738922,2024-04-23T16:52:13.263
-2.0079383850097656,-0.509666383266449,-0.4683859348297119,3.8758411407470703,0.9893372058868408,-1.7665770053863525,2024-04-23T16:52:13.283
-1.5917887687683105,-0.29227888584136963,0.21613001823425293,3.6595284938812256,0.7495521903038025,-2.7464377880096436,2024-04-23T16:52:13.303
-1.1408838033676147,-0.016621321439743042,0.6480540037155151,3.4013850688934326,0.4799818694591522,-3.339986801147461,2024-04-23T16:52:13.323
-0.6285161375999451,0.25143808126449585,1.123963475227356,2.6821579933166504,-0.1702389419078827,-3.595263719558716,2024-04-23T16:52:13.343
-0.17897914350032806,0.3753007650375366,1.647594928741455,1.39437735080719,-0.9194474816322327,-3.6303389072418213,2024-04-23T16:52:13.363
0.27209344506263733,0.41257381439208984,1.793197512626648,0.04539981856942177,-1.4012811183929443,-3.363140821456909,2024-04-23T16:52:13.382
0.6646901369094849,0.47577714920043945,1.6611406803131104,-1.1346421241760254,-1.6888418197631836,-2.8598902225494385,2024-04-23T16:52:13.402
1.045745611190796,0.5982668995857239,1.4547908306121826,-1.9959298372268677,-2.2185211181640625,-2.0737826824188232,2024-04-23T16:52:13.422
1.4122644662857056,0.8196450471878052,1.1970597505569458,-2.8884382247924805,-2.632578134536743,-0.8311122059822083,2024-04-23T16:52:13.442
1.6626505851745605,1.1238716840744019,0.8436105251312256,-3.847968578338623,-2.526622772216797,0.8225374221801758,2024-04-23T16:52:13.462
1.7808171510696411,1.5356701612472534,0.2153823971748352,-4.389145374298096,-2.0873844623565674,2.6933016777038574,2024-04-23T16:52:13.482
1.6038086414337158,1.9375203847885132,-0.9265843033790588,-3.5031251907348633,-1.17393958568573,4.337531566619873,2024-04-23T16:52:13.502
1.2094032764434814,1.885695457458496,-2.018367290496826,-1.270787239074707,-0.5911217331886292,5.435876846313477,2024-04-23T16:52:13.522
0.3480706512928009,1.4900693893432617,-2.28957200050354,0.6245954036712646,-0.2383429855108261,5.452075004577637,2024-04-23T16:52:13.542
-0.6994814872741699,0.7824971079826355,-1.6884665489196777,1.2444438934326172,0.12278483808040619,4.763656139373779,2024-04-23T16:52:13.562
-1.4743098020553589,0.047679491341114044,-1.2530796527862549,1.372692584991455,0.8346928358078003,3.922758102416992,2024-04-23T16:52:13.582
-2.154123067855835,-0.5613223910331726,-1.1589351892471313,1.8229013681411743,1.3614166975021362,2.61934232711792,2024-04-23T16:52:13.602
-2.7079224586486816,-0.9216322302818298,-0.9781705141067505,2.7921392917633057,0.8732723593711853,0.5435100793838501,2024-04-23T16:52:13.622
-2.657764434814453,-0.9338306188583374,-0.5659745931625366,3.631718158721924,0.4229355454444885,-1.4774682521820068,2024-04-23T16:52:13.642
-2.158407211303711,-0.6099904775619507,0.07171154022216797,3.7670023441314697,0.2696927487850189,-2.9362590312957764,2024-04-23T16:52:13.662
-1.4652924537658691,-0.17538908123970032,0.7201882600784302,3.332512617111206,-0.001113654114305973,-3.731748342514038,2024-04-23T16:52:13.682
-0.7695590257644653,0.17286545038223267,1.2562313079833984,2.3649489879608154,-0.6191969513893127,-4.055598735809326,2024-04-23T16:52:13.702
-0.20524188876152039,0.38229888677597046,1.6372101306915283,0.8639407157897949,-0.9359120726585388,-3.9595227241516113,2024-04-23T16:52:13.722
0.2835376262664795,0.5327135324478149,1.7773032188415527,-0.9012978076934814,-0.7717161774635315,-3.4883575439453125,2024-04-23T16:52:13.742
0.6864633560180664,0.5874977111816406,1.6044491529464722,-2.2165369987487793,-0.7551953792572021,-2.8766286373138428,2024-04-23T16:52:13.762
0.9890872240066528,0.5953539609909058,1.298210620880127,-2.892551898956299,-1.3014642000198364,-2.303049325942993,2024-04-23T16:52:13.782
1.2625176906585693,0.740381121635437,0.8780443072319031,-3.190338611602783,-1.65719473361969,-1.3789949417114258,2024-04-23T16:52:13.802
1.6069313287734985,0.9937200546264648,0.5069050192832947,-3.429722547531128,-1.8675506114959717,0.020610913634300232,2024-04-23T16:52:13.822
1.7423888444900513,1.214963436126709,-0.002129495143890381,-3.3046000003814697,-1.8356784582138062,1.5702189207077026,2024-04-23T16:52:13.842
1.6169753074645996,1.4185032844543457,-0.7094154953956604,-2.651824474334717,-1.5449259281158447,3.049783945083618,2024-04-23T16:52:13.862
1.1859321594238281,1.517027497291565,-1.4642384052276611,-1.4753319025039673,-0.5913854837417603,4.179020404815674,2024-04-23T16:52:13.882
0.6809762716293335,1.3780262470245361,-2.17313814163208,0.5092673301696777,0.03975963592529297,4.857841491699219,2024-04-23T16:52:13.902
-0.13656651973724365,0.9929306507110596,-2.2148070335388184,2.023739814758301,0.6865297555923462,4.755833148956299,2024-04-23T16:52:13.922
-1.2005960941314697,0.42190441489219666,-1.5837721824645996,2.4004955291748047,1.2330819368362427,3.672518730163574,2024-04-23T16:52:13.942
-2.0293047428131104,-0.2657773494720459,-1.0943400859832764,2.863044261932373,1.4098536968231201,1.9128706455230713,2024-04-23T16:52:13.962
-2.273972511291504,-0.6157971620559692,-0.8903858661651611,3.6809213161468506,1.033528447151184,0.10733543336391449,2024-04-23T16:52:13.982
-2.142916440963745,-0.6141996383666992,-0.38778239488601685,4.267928123474121,0.6205956339836121,-1.4073272943496704,2024-04-23T16:52:14.001
-1.7312562465667725,-0.3904387056827545,0.1732426881790161,4.372474670410156,0.36056455969810486,-2.425039768218994,2024-04-23T16:52:14.021
-1.2826545238494873,-0.1349596381187439,0.8190397620201111,3.657435417175293,0.3154617249965668,-3.0579121112823486,2024-04-23T16:52:14.041
-0.7746677994728088,0.06650596857070923,1.6199214458465576,1.9573057889938354,0.027568712830543518,-3.310760021209717,2024-04-23T16:52:14.061
-0.22963400185108185,0.21871840953826904,1.8533439636230469,0.31775251030921936,-0.32623541355133057,-3.278830051422119,2024-04-23T16:52:14.081
0.26880747079849243,0.2893182039260864,1.6429457664489746,-0.5833010077476501,-0.7548052668571472,-2.9665932655334473,2024-04-23T16:52:14.101
0.5478682518005371,0.36933237314224243,1.4385311603546143,-1.3022160530090332,-1.1655874252319336,-2.5823559761047363,2024-04-23T16:52:14.121
0.834783673286438,0.4884606599807739,1.460170030593872,-2.208287477493286,-1.8355871438980103,-2.096038579940796,2024-04-23T16:52:14.141
1.0507259368896484,0.6660882830619812,1.2766640186309814,-3.012666940689087,-2.3677492141723633,-1.346808671951294,2024-04-23T16:52:14.161
1.3068214654922485,0.9360047578811646,0.8362606763839722,-3.684474229812622,-2.2849349975585938,-0.18541337549686432,2024-04-23T16:52:14.181
1.6057490110397339,1.2109367847442627,0.21204650402069092,-3.986997604370117,-1.7468211650848389,1.4116201400756836,2024-04-23T16:52:14.201
1.6723875999450684,1.5309975147247314,-0.6112786531448364,-3.2292027473449707,-1.5086427927017212,3.007394790649414,2024-04-23T16:52:14.221
1.335641622543335,1.646217942237854,-1.5554537773132324,-1.5447781085968018,-1.1259080171585083,4.146527290344238,2024-04-23T16:52:14.241
0.5990842580795288,1.4574179649353027,-1.9313368797302246,-0.22821028530597687,-0.7709432244300842,4.46550178527832,2024-04-23T16:52:14.261
-0.1710735261440277,0.9272271394729614,-1.6752279996871948,0.5864322185516357,-0.6218381524085999,4.206167221069336,2024-04-23T16:52:14.281
-0.7822530269622803,0.3537347912788391,-1.6135878562927246,1.204573631286621,0.1299402117729187,3.817628860473633,2024-04-23T16:52:14.301
-1.4088321924209595,-0.14145904779434204,-1.5404143333435059,1.6611042022705078,1.6344082355499268,3.16072416305542,2024-04-23T16:52:14.321
-2.0931577682495117,-0.5402839779853821,-1.2150499820709229,2.2935309410095215,1.9179359674453735,1.6617082357406616,2024-04-23T16:52:14.341
-2.4634289741516113,-0.7504510879516602,-0.6837682723999023,3.134422779083252,1.0650148391723633,-0.3166677951812744,2024-04-23T16:52:14.361
-2.2279903888702393,-0.6216350197792053,-0.273220419883728,3.816012382507324,0.5202319622039795,-1.8887981176376343,2024-04-23T16:52:14.381
-1.7161149978637695,-0.3243654668331146,0.273099422454834,3.900794267654419,0.32268983125686646,-2.8879170417785645,2024-04-23T16:52:14.401
-1.2032328844070435,-0.029454827308654785,0.8973581194877625,3.2266910076141357,0.2559564411640167,-3.4653561115264893,2024-04-23T16:52:14.421
-0.6492943167686462,0.1915987730026245,1.478596806526184,1.9802073240280151,-0.18118533492088318,-3.6733815670013428,2024-04-23T16:52:14.441
-0.09731194376945496,0.3240611255168915,1.7807914018630981,0.5717084407806396,-0.8677975535392761,-3.609896183013916,2024-04-23T16:52:14.461
0.3237338662147522,0.3984946608543396,1.8424389362335205,-0.8415258526802063,-1.1746360063552856,-3.338155746459961,2024-04-23T16:52:14.481
0.8072509765625,0.5132687091827393,1.6142590045928955,-1.9685598611831665,-1.3439027070999146,-2.6539406776428223,2024-04-23T16:52:14.501
1.239130973815918,0.645004391670227,1.421629548072815,-2.967562437057495,-1.7317934036254883,-1.6716595888137817,2024-04-23T16:52:14.521
1.4851735830307007,0.8650436997413635,1.1452620029449463,-3.8315463066101074,-1.9525574445724487,-0.48572471737861633,2024-04-23T16:52:14.541
1.6462019681930542,1.084977149963379,0.5501319169998169,-4.069945335388184,-1.9916514158248901,0.933836817741394,2024-04-23T16:52:14.561
1.693366289138794,1.2892876863479614,-0.2967097759246826,-3.469510793685913,-2.0516693592071533,2.4248924255371094,2024-04-23T16:52:14.581
1.3865858316421509,1.4722541570663452,-1.2563902139663696,-2.1829934120178223,-1.7716506719589233,3.6898276805877686,2024-04-23T16:52:14.601
0.7972449660301208,1.4241124391555786,-1.7919330596923828,-1.061984896659851,-0.9478427767753601,4.4722771644592285,2024-04-23T16:52:14.620
0.0014220476150512695,1.0390430688858032,-2.1135292053222656,0.12211471796035767,0.2799034118652344,4.538061141967773,2024-04-23T16:52:14.640
-0.8371066451072693,0.4925256371498108,-2.1726865768432617,1.5299862623214722,1.114853858947754,3.9265260696411133,2024-04-23T16:52:14.660
-1.5938024520874023,-0.0155864879488945,-1.787203311920166,2.5188167095184326,1.6620763540267944,2.6225244998931885,2024-04-23T16:52:14.680
-2.265427589416504,-0.47816962003707886,-1.0946903228759766,3.1793065071105957,1.359713077545166,0.5907111167907715,2024-04-23T16:52:14.700
-2.233690023422241,-0.6049894094467163,-0.5578811168670654,3.8069093227386475,0.5680395364761353,-1.177409291267395,2024-04-23T16:52:14.720
-1.8551647663116455,-0.44491884112358093,-0.13632792234420776,4.0384745597839355,0.6352277994155884,-2.3758137226104736,2024-04-23T16:52:14.740
-1.4207701683044434,-0.16263559460639954,0.41830945014953613,3.839578866958618,0.7275628447532654,-3.0604593753814697,2024-04-23T16:52:14.760
-0.942696213722229,0.09022387862205505,0.9657745361328125,3.215616226196289,0.2551698386669159,-3.4852659702301025,2024-04-23T16:52:14.780
-0.4587007164955139,0.23416230082511902,1.5168298482894897,1.985480785369873,-0.5196782946586609,-3.6556529998779297,2024-04-23T16:52:14.800
0.03812091052532196,0.3484582304954529,1.8359907865524292,0.3645448386669159,-1.0915248394012451,-3.49638295173645,2024-04-23T16:52:14.820
0.46456488966941833,0.4937029480934143,1.8122038841247559,-1.1241570711135864,-1.0390747785568237,-3.008291006088257,2024-04-23T16:52:14.840
0.8637693524360657,0.6180628538131714,1.4826054573059082,-2.0975067615509033,-1.229634165763855,-2.222248077392578,2024-04-23T16:52:14.860
1.2602465152740479,0.7631142139434814,1.2540736198425293,-2.9078500270843506,-1.9103097915649414,-1.2136131525039673,2024-04-23T16:52:14.880
1.4791650772094727,0.9786799550056458,0.8854594230651855,-3.3448359966278076,-2.431462526321411,-0.020652391016483307,2024-04-23T16:52:14.900
1.5830804109573364,1.1783430576324463,0.10647451877593994,-3.168766498565674,-2.4575607776641846,1.3135499954223633,2024-04-23T16:52:14.920
1.6369221210479736,1.2463722229003906,-0.7779333591461182,-2.424302101135254,-1.700692892074585,2.919187068939209,2024-04-23T16:52:14.940
1.354785442352295,1.2635841369628906,-1.2770695686340332,-1.8320026397705078,-0.5808379054069519,4.27755880355835,2024-04-23T16:52:14.960
0.6265257596969604,1.1358188390731812,-1.6143081188201904,-1.2337965965270996,0.319129079580307,4.701855182647705,2024-04-23T16:52:14.980
-0.3249858021736145,0.7312543392181396,-1.8290622234344482,-0.1862514615058899,0.7306200265884399,4.148813724517822,2024-04-23T16:52:15.000
-0.9989604949951172,0.28619420528411865,-2.0482046604156494,1.5136058330535889,1.013870120048523,3.282926082611084,2024-04-23T16:52:15.020
-1.500614881515503,-0.07880084216594696,-1.7870309352874756,2.8229494094848633,1.1097050905227661,2.086904525756836,2024-04-23T16:52:15.040
-1.985668420791626,-0.40477079153060913,-0.9511058330535889,3.294504404067993,0.9028235673904419,0.513558030128479,2024-04-23T16:52:15.060
-1.9707218408584595,-0.5183759331703186,-0.29636484384536743,3.3842427730560303,0.927558422088623,-0.7351499795913696,2024-04-23T16:52:15.080
-1.7233054637908936,-0.43807491660118103,0.07623100280761719,3.4097089767456055,1.1705186367034912,-1.653670310974121,2024-04-23T16:52:15.100
-1.4325238466262817,-0.2789730131626129,0.5871449708938599,3.307305097579956,0.7284131050109863,-2.5235352516174316,2024-04-23T16:52:15.119
-1.0658639669418335,-0.13427934050559998,1.1187812089920044,2.7006890773773193,-0.034004390239715576,-3.293144464492798,2024-04-23T16:52:15.139
-0.5528939366340637,0.03915202617645264,1.6025822162628174,1.4787112474441528,-0.8254423141479492,-3.6535747051239014,2024-04-23T16:52:15.160
-0.009930416941642761,0.21201038360595703,1.8318442106246948,-0.009375207126140594,-1.1331251859664917,-3.5539357662200928,2024-04-23T16:52:15.179
0.4299231767654419,0.38405072689056396,1.7356674671173096,-1.2768040895462036,-1.37437105178833,-3.1363308429718018,2024-04-23T16:52:15.199
0.8335979580879211,0.560686469078064,1.5531647205352783,-2.2759368419647217,-1.9008002281188965,-2.404198408126831,2024-04-23T16:52:15.219
1.1824700832366943,0.7411977052688599,1.2386536598205566,-3.132051467895508,-2.2637503147125244,-1.3573042154312134,2024-04-23T16:52:15.239
1.453385829925537,1.0065182447433472,0.7497333884239197,-3.7801263332366943,-2.1596128940582275,0.031953055411577225,2024-04-23T16:52:15.259
1.6566526889801025,1.3362184762954712,0.15610122680664062,-4.161674976348877,-1.772136926651001,1.6697893142700195,2024-04-23T16:52:15.279
1.7129325866699219,1.6828439235687256,-0.7549805641174316,-3.3788082599639893,-1.5338943004608154,3.278221368789673,2024-04-23T16:52:15.299
1.3442916870117188,1.7385729551315308,-1.7185944318771362,-1.685252070426941,-0.9134971499443054,4.399787902832031,2024-04-23T16:52:15.319
0.7636157274246216,1.4874027967453003,-2.241222858428955,0.11942173540592194,-0.2876262068748474,4.833416938781738,2024-04-23T16:52:15.339
-0.024474382400512695,0.9992036819458008,-1.9256607294082642,1.088110089302063,0.17317399382591248,4.71467399597168,2024-04-23T16:52:15.359
-0.6803839206695557,0.39531612396240234,-1.526692271232605,1.5005913972854614,0.827362596988678,4.347989082336426,2024-04-23T16:52:15.379
-1.4019627571105957,-0.05052860826253891,-1.2933831214904785,1.948296308517456,1.4872875213623047,3.6514697074890137,2024-04-23T16:52:15.399
-2.1714603900909424,-0.453554630279541,-1.151482343673706,2.9250149726867676,1.7010552883148193,2.0959560871124268,2024-04-23T16:52:15.419
-2.7242679595947266,-0.6970758438110352,-0.5937636494636536,3.818301200866699,0.7047820091247559,-0.1686740517616272,2024-04-23T16:52:15.439
-2.4341249465942383,-0.696081280708313,0.0794978141784668,4.244611740112305,-0.169185608625412,-1.9637610912322998,2024-04-23T16:52:15.459
-1.7971296310424805,-0.4170328676700592,0.5496151447296143,3.9882383346557617,-0.22623325884342194,-2.9636056423187256,2024-04-23T16:52:15.479
-1.138380765914917,-0.13582146167755127,1.3693585395812988,2.5390841960906982,-0.08310244232416153,-3.394385814666748,2024-04-23T16:52:15.499
-0.47102218866348267,0.12104874849319458,2.1237847805023193,0.2665492594242096,-0.3539118766784668,-3.451331377029419,2024-04-23T16:52:15.519
0.13421104848384857,0.3184688985347748,2.2459490299224854,-1.6251113414764404,-0.8700473308563232,-3.23144793510437,2024-04-23T16:52:15.539
0.5646248459815979,0.5402622818946838,1.6612622737884521,-2.3748674392700195,-1.4258790016174316,-2.8729491233825684,2024-04-23T16:52:15.559
1.0749735832214355,0.8768352270126343,1.0698198080062866,-2.666381597518921,-1.9746983051300049,-1.9692189693450928,2024-04-23T16:52:15.579
1.559509038925171,1.1677565574645996,0.6451159715652466,-2.9516661167144775,-2.212256669998169,-0.5464426875114441,2024-04-23T16:52:15.599
1.7259374856948853,1.3132083415985107,0.26822811365127563,-3.173844814300537,-2.1665866374969482,0.9370880126953125,2024-04-23T16:52:15.619
1.6791255474090576,1.3884894847869873,-0.5164534449577332,-2.530932664871216,-1.9467164278030396,2.381458044052124,2024-04-23T16:52:15.639
1.3281357288360596,1.2577041387557983,-1.4582020044326782,-1.1152530908584595,-1.175098180770874,3.4864234924316406,2024-04-23T16:52:15.659
0.6271696090698242,0.921057939529419,-1.7176156044006348,-0.08308877050876617,-0.3028961718082428,3.9572548866271973,2024-04-23T16:52:15.679
-0.19993016123771667,0.4204216003417969,-1.5220794677734375,0.33917179703712463,0.4816626310348511,3.7742843627929688,2024-04-23T16:52:15.699
-0.9133774042129517,-0.14334234595298767,-1.581176519393921,0.9978535771369934,1.1580686569213867,3.0912604331970215,2024-04-23T16:52:15.719
-1.5049693584442139,-0.5181989669799805,-1.4593372344970703,1.876696228981018,1.107216477394104,1.7782833576202393,2024-04-23T16:52:15.739
-1.9474014043807983,-0.730286180973053,-1.2885651588439941,2.8880341053009033,0.9687654972076416,0.1229335367679596,2024-04-23T16:52:15.758
-1.841916561126709,-0.602409839630127,-0.9443804621696472,3.7512338161468506,0.6490538716316223,-1.1993485689163208,2024-04-23T16:52:15.778
-1.6225682497024536,-0.3596295714378357,-0.34777700901031494,4.010774612426758,0.5703070163726807,-2.2465639114379883,2024-04-23T16:52:15.798
-1.2411887645721436,-0.07072553038597107,0.22148841619491577,3.7921578884124756,0.6721926927566528,-2.8622779846191406,2024-04-23T16:52:15.818
-0.8260294198989868,0.15386462211608887,0.7160685658454895,3.20886492729187,0.5383201241493225,-3.138906240463257,2024-04-23T16:52:15.838
-0.411419540643692,0.37346553802490234,1.187225341796875,2.328585624694824,0.14298298954963684,-3.1580379009246826,2024-04-23T16:52:15.858
-0.0391157865524292,0.5439761281013489,1.466059684753418,1.234919786453247,-0.3152107000350952,-3.0060689449310303,2024-04-23T16:52:15.878
0.2745124399662018,0.6416869163513184,1.5912058353424072,0.08463477343320847,-0.6417288184165955,-2.644763469696045,2024-04-23T16:52:15.898
0.5798724293708801,0.7140695452690125,1.4986170530319214,-0.8439504504203796,-0.7117304801940918,-2.097064733505249,2024-04-23T16:52:15.918
0.8238686323165894,0.7303634881973267,1.3610105514526367,-1.5597187280654907,-0.9484569430351257,-1.4953198432922363,2024-04-23T16:52:15.938
1.0456717014312744,0.7879820466041565,1.269921898841858,-2.2933578491210938,-1.3621889352798462,-0.8417017459869385,2024-04-23T16:52:15.958
1.1933672428131104,0.9132899045944214,0.9830073714256287,-2.764432668685913,-1.707290768623352,-0.12379340827465057,2024-04-23T16:52:15.978
1.3973523378372192,1.0476330518722534,0.5598307847976685,-3.1110026836395264,-1.7908828258514404,0.8794038891792297,2024-04-23T16:52:15.998
1.5388574600219727,1.2284575700759888,0.3403629660606384,-3.762983560562134,-1.64752197265625,2.1204636096954346,2024-04-23T16:52:16.018
1.5522913932800293,1.372846245765686,-0.24516266584396362,-3.780327796936035,-1.7098840475082397,3.5978658199310303,2024-04-23T16:52:16.038
1.264796495437622,1.3859853744506836,-1.1109778881072998,-2.8562495708465576,-1.4869314432144165,4.79904317855835,2024-04-23T16:52:16.058
0.48323917388916016,1.1242223978042603,-1.9026339054107666,-1.494118332862854,-0.8188205361366272,5.226101398468018,2024-04-23T16:52:16.078
-0.36526867747306824,0.6721149682998657,-2.23860502243042,0.06701879948377609,-0.3528822362422943,4.978555202484131,2024-04-23T16:52:16.098
-1.1891977787017822,0.1220199391245842,-2.2418134212493896,1.259242057800293,0.6143346428871155,4.212343215942383,2024-04-23T16:52:16.118
-1.9033043384552002,-0.30199289321899414,-2.014209270477295,2.2797904014587402,1.4092369079589844,2.888951539993286,2024-04-23T16:52:16.138
-2.5001602172851562,-0.6453619003295898,-1.5639550685882568,3.330293893814087,1.4150558710098267,0.927042543888092,2024-04-23T16:52:16.158
-2.399998426437378,-0.6525335311889648,-0.9245192408561707,4.180103302001953,0.9018563628196716,-0.8251712322235107,2024-04-23T16:52:16.178
-1.9797441959381104,-0.36785757541656494,-0.37577342987060547,4.715493202209473,0.4952172338962555,-1.9979960918426514,2024-04-23T16:52:16.198
-1.5314812660217285,-0.05486378073692322,0.38003772497177124,4.4369587898254395,0.3294264078140259,-2.8125815391540527,2024-04-23T16:52:16.218
-1.0044078826904297,0.21367251873016357,1.1431320905685425,3.333094596862793,-0.04928974434733391,-3.1666483879089355,2024-04-23T16:52:16.237
-0.4722953736782074,0.37882405519485474,1.661744236946106,1.7931095361709595,-0.48092120885849,-3.157089948654175,2024-04-23T16:52:16.258
-0.08421255648136139,0.4457920789718628,1.8833956718444824,0.055037688463926315,-0.5391281843185425,-2.934725046157837,2024-04-23T16:52:16.277
0.2773550748825073,0.5096335411071777,1.851123571395874,-1.4105665683746338,-0.47486966848373413,-2.538304567337036,2024-04-23T16:52:16.297
0.5640876889228821,0.5691816806793213,1.5946617126464844,-2.256340742111206,-0.9474583864212036,-2.2357161045074463,2024-04-23T16:52:16.317
0.7106826901435852,0.6719114780426025,1.3072983026504517,-2.648939609527588,-1.6925380229949951,-1.9726982116699219,2024-04-23T16:52:16.337
1.0104504823684692,0.8625901937484741,0.8970656394958496,-2.879549264907837,-2.454901695251465,-1.405622124671936,2024-04-23T16:52:16.357
1.3494781255722046,1.1258913278579712,0.571801483631134,-3.271658182144165,-2.63942551612854,-0.2663593888282776,2024-04-23T16:52:16.377
1.7257936000823975,1.335744857788086,-0.1780523657798767,-3.0925374031066895,-2.2844302654266357,1.5853376388549805,2024-04-23T16:52:16.397
1.854906678199768,1.3583201169967651,-1.1146868467330933,-1.9173085689544678,-1.8385964632034302,3.6552109718322754,2024-04-23T16:52:16.417
1.2930885553359985,1.1930969953536987,-1.8560080528259277,-0.5355305671691895,-0.3818558156490326,4.897468566894531,2024-04-23T16:52:16.437
0.2102862298488617,0.797317624092102,-1.883357048034668,0.13236811757087708,0.9640470147132874,4.795430660247803,2024-04-23T16:52:16.457
-0.7164340615272522,0.2173473984003067,-1.551641583442688,0.7202423810958862,1.4251424074172974,3.888678789138794,2024-04-23T16:52:16.477
-1.2122443914413452,-0.20515137910842896,-1.446380376815796,1.6011221408843994,1.2658941745758057,2.742788791656494,2024-04-23T16:52:16.497
-1.600733995437622,-0.4708200991153717,-1.2133057117462158,2.5942790508270264,1.059766411781311,1.4822744131088257,2024-04-23T16:52:16.517
-1.845136046409607,-0.6303600668907166,-0.6644530892372131,3.1582865715026855,0.5361289978027344,-0.0018717763014137745,2024-04-23T16:52:16.537
-1.8855894804000854,-0.6792612075805664,0.01759093999862671,3.143882989883423,0.03290684148669243,-1.5700807571411133,2024-04-23T16:52:16.557
-1.5702108144760132,-0.4858414828777313,0.5044022798538208,2.618018865585327,0.07671766728162766,-2.5350470542907715,2024-04-23T16:52:16.577
-0.8955051302909851,-0.1303708553314209,1.0619032382965088,1.620362401008606,-0.07211878895759583,-2.7454280853271484,2024-04-23T16:52:16.597
-0.35737159848213196,0.11230435967445374,1.4662895202636719,0.23807674646377563,-0.3562433421611786,-2.6158769130706787,2024-04-23T16:52:16.617
-0.02171272039413452,0.23128429055213928,1.768455982208252,-1.2427394390106201,-0.6707723736763,-2.5689384937286377,2024-04-23T16:52:16.637
0.3630046844482422,0.36520665884017944,1.3350203037261963,-1.779158353805542,-1.5769490003585815,-2.3248236179351807,2024-04-23T16:52:16.657
0.7478660345077515,0.650574266910553,0.705786943435669,-1.6476467847824097,-2.493732213973999,-1.6884965896606445,2024-04-23T16:52:16.677
1.101954460144043,0.9498255252838135,0.5283952951431274,-2.2958691120147705,-2.540390729904175,-0.7090232968330383,2024-04-23T16:52:16.697
1.4190096855163574,1.1334092617034912,-0.0558093786239624,-2.462100028991699,-2.1867003440856934,0.7037660479545593,2024-04-23T16:52:16.716
1.5733450651168823,1.1555745601654053,-1.074936866760254,-1.3419222831726074,-1.8182874917984009,2.2107932567596436,2024-04-23T16:52:16.737
1.2028063535690308,0.9714929461479187,-1.9644784927368164,0.41693446040153503,-0.8591907620429993,3.18772554397583,2024-04-23T16:52:16.757
0.26614829897880554,0.6237847805023193,-2.2079102993011475,2.079249858856201,0.04032907262444496,3.1910109519958496,2024-04-23T16:52:16.777
-0.655687153339386,0.1975233554840088,-1.7881805896759033,2.9603958129882812,0.5715312957763672,2.3902833461761475,2024-04-23T16:52:16.797
-1.3132318258285522,-0.291896253824234,-1.191070795059204,3.168067455291748,1.2988406419754028,1.382279396057129,2024-04-23T16:52:16.817
-1.5880920886993408,-0.5258097648620605,-0.6612720489501953,3.4172773361206055,1.2551614046096802,0.3454153537750244,2024-04-23T16:52:16.833
-1.7283656597137451,-0.5754783153533936,-0.18256884813308716,3.720273733139038,0.724529504776001,-0.8318784236907959,2024-04-23T16:52:16.853
-1.7079085111618042,-0.526750922203064,0.5352848172187805,3.3431174755096436,0.32151320576667786,-2.011695623397827,2024-04-23T16:52:16.873
-1.2066259384155273,-0.30537909269332886,1.220879316329956,1.9883002042770386,0.47731876373291016,-2.507089853286743,2024-04-23T16:52:16.893
-0.6207705736160278,0.003160238265991211,1.9524178504943848,-0.17170482873916626,0.7664642333984375,-2.549588441848755,2024-04-23T16:52:16.913
-0.19394966959953308,0.2782592177391052,2.0066275596618652,-1.509889006614685,0.4999173581600189,-2.571932077407837,2024-04-23T16:52:16.933
0.13613250851631165,0.5090742111206055,1.604048490524292,-1.5047087669372559,-0.7239428162574768,-2.605302095413208,2024-04-23T16:52:16.953
0.529234766960144,0.6129904985427856,1.2357338666915894,-1.3130834102630615,-2.1034421920776367,-2.527738332748413,2024-04-23T16:52:16.973
0.9624470472335815,0.7013829350471497,1.282160758972168,-2.196359872817993,-2.5738766193389893,-1.9255191087722778,2024-04-23T16:52:16.993
1.5562243461608887,0.9639526605606079,1.2867449522018433,-3.909827470779419,-1.9999750852584839,-0.47586649656295776,2024-04-23T16:52:17.013
1.9707908630371094,1.2313735485076904,0.4741591215133667,-4.637410640716553,-1.5951241254806519,1.460792899131775,2024-04-23T16:52:17.033
1.8506500720977783,1.298473834991455,-0.7723760008811951,-3.4352078437805176,-1.5590590238571167,3.131537914276123,2024-04-23T16:52:17.053
1.0948560237884521,1.1297023296356201,-2.0692269802093506,-1.352486491203308,-0.7170325517654419,3.8276844024658203,2024-04-23T16:52:17.073
0.03696352243423462,0.6979041695594788,-2.143746852874756,0.10354346036911011,-0.24847383797168732,3.4453024864196777,2024-04-23T16:52:17.093
-0.6473802328109741,0.20461346209049225,-1.8767266273498535,1.0823394060134888,0.2655225992202759,2.765733480453491,2024-04-23T16:52:17.113
-1.0999661684036255,-0.15965041518211365,-1.6220111846923828,1.7491854429244995,1.309243083000183,2.102203369140625,2024-04-23T16:52:17.133
-1.6185654401779175,-0.4287238121032715,-1.209433674812317,2.2129955291748047,2.105372428894043,1.0585232973098755,2024-04-23T16:52:17.153
-1.931128978729248,-0.5281879901885986,-0.5801392793655396,2.7298009395599365,1.3583061695098877,-0.3756730258464813,2024-04-23T16:52:17.173
-1.9277691841125488,-0.5325430631637573,-0.04456174373626709,3.258770704269409,0.09452154487371445,-1.9415011405944824,2024-04-23T16:52:17.193
-1.502912998199463,-0.3305586278438568,0.4041507840156555,3.177353620529175,-0.24762214720249176,-2.8524603843688965,2024-04-23T16:52:17.213
-0.8461447954177856,0.024430543184280396,1.0179517269134521,2.117980480194092,0.08367102593183517,-2.849860191345215,2024-04-23T16:52:17.233
-0.31232786178588867,0.2716689705848694,1.5781867504119873,0.6250645518302917,-0.008185609243810177,-2.5773234367370605,2024-04-23T16:52:17.253
-0.09375578165054321,0.3525407314300537,1.8306632041931152,-0.6991690397262573,-0.7076321244239807,-2.5916175842285156,2024-04-23T16:52:17.273
0.2526085376739502,0.39429008960723877,1.6287569999694824,-1.5739487409591675,-1.2796964645385742,-2.5413312911987305,2024-04-23T16:52:17.293
0.815168023109436,0.5601082444190979,1.3726105690002441,-2.437798023223877,-1.6791527271270752,-2.0272367000579834,2024-04-23T16:52:17.313
1.2955958843231201,0.8665021657943726,1.1359676122665405,-3.347355604171753,-1.9170023202896118,-1.0760480165481567,2024-04-23T16:52:17.333
1.7457048892974854,1.171396017074585,0.4633929133415222,-3.5269012451171875,-2.1299445629119873,0.27030327916145325,2024-04-23T16:52:17.353
1.947519063949585,1.361509084701538,-0.4357966184616089,-2.7131357192993164,-2.5640881061553955,1.6703791618347168,2024-04-23T16:52:17.373
1.7236278057098389,1.4563013315200806,-1.2764571905136108,-1.6002873182296753,-2.180861234664917,2.9390902519226074,2024-04-23T16:52:17.394
1.301774263381958,1.3458937406539917,-1.7520923614501953,-0.3342991769313812,-1.371562123298645,4.299168109893799,2024-04-23T16:52:17.413
0.6211538910865784,0.9576399326324463,-1.847503423690796,0.6035333275794983,-0.39475685358047485,5.1070237159729,2024-04-23T16:52:17.433
-0.6973416209220886,0.26896658539772034,-1.5652730464935303,0.8605439066886902,0.953791081905365,4.611667156219482,2024-04-23T16:52:17.453
-1.717282772064209,-0.40071940422058105,-1.3838615417480469,1.4674928188323975,1.3845305442810059,3.243396520614624,2024-04-23T16:52:17.473
-2.2100439071655273,-0.772777795791626,-1.320122480392456,2.718756914138794,0.5607099533081055,1.426026701927185,2024-04-23T16:52:17.493
-2.3488454818725586,-0.8375556468963623,-0.9313667416572571,3.5255889892578125,0.16748256981372833,-0.37673139572143555,2024-04-23T16:52:17.513
-2.2056689262390137,-0.7119874954223633,-0.30099421739578247,3.594423294067383,0.5575425624847412,-1.811785340309143,2024-04-23T16:52:17.533
-1.7088756561279297,-0.4187467694282532,0.2569451928138733,3.3157598972320557,0.9562946557998657,-2.6463541984558105,2024-04-23T16:52:17.553
-1.1178257465362549,-0.06590566039085388,0.8125604391098022,2.6354644298553467,0.8171234130859375,-2.958740472793579,2024-04-23T16:52:17.573
-0.6497521996498108,0.21379125118255615,1.4120666980743408,1.5354483127593994,-0.01675984635949135,-3.1330604553222656,2024-04-23T16:52:17.593
-0.31830477714538574,0.4100935459136963,1.6714624166488647,0.20968174934387207,-0.20717273652553558,-3.090550184249878,2024-04-23T16:52:17.613
0.034627944231033325,0.5654056072235107,1.5960359573364258,-0.8056759834289551,-0.11490979790687561,-2.8351705074310303,2024-04-23T16:52:17.633
0.3667149841785431,0.6439624428749084,1.4823598861694336,-1.498109221458435,-0.522797703742981,-2.5617995262145996,2024-04-23T16:52:17.653
0.7275897264480591,0.7176753282546997,1.456587553024292,-2.229332685470581,-1.166944146156311,-2.1752212047576904,2024-04-23T16:52:17.673
1.222549319267273,0.8872772455215454,1.3741209506988525,-3.335383176803589,-1.7681047916412354,-1.379990816116333,2024-04-23T16:52:17.693
1.8152217864990234,1.2123221158981323,0.957258403301239,-4.428586006164551,-1.9785282611846924,0.1991335153579712,2024-04-23T16:52:17.713
2.249901533126831,1.5918463468551636,-0.023320257663726807,-4.20910120010376,-2.3618686199188232,2.388814926147461,2024-04-23T16:52:17.732
2.022714853286743,1.6991685628890991,-1.6010305881500244,-2.217963457107544,-1.744563341140747,4.338943004608154,2024-04-23T16:52:17.752
1.0769813060760498,1.3796006441116333,-2.4469470977783203,-0.18461944162845612,-0.7007455229759216,5.114597797393799,2024-04-23T16:52:17.772
-0.2668730616569519,0.773501455783844,-2.181473731994629,0.9833574295043945,-0.005100677255541086,4.380296230316162,2024-04-23T16:52:17.792
-1.3111121654510498,0.05297856032848358,-1.769893765449524,1.6929919719696045,0.25270599126815796,2.908109188079834,2024-04-23T16:52:17.812
-1.7806284427642822,-0.42910778522491455,-1.6108760833740234,2.519969940185547,0.9975854158401489,1.5452204942703247,2024-04-23T16:52:17.832
-1.986318826675415,-0.5809388160705566,-1.3512722253799438,3.2442336082458496,1.7919316291809082,0.2999058961868286,2024-04-23T16:52:17.852
-2.120851993560791,-0.5858993530273438,-0.6188448071479797,3.793241500854492,1.2705073356628418,-1.2592500448226929,2024-04-23T16:52:17.872
-1.8973373174667358,-0.47040414810180664,0.06830424070358276,4.157248020172119,0.14829470217227936,-2.792928695678711,2024-04-23T16:52:17.892
-1.3805817365646362,-0.16542303562164307,0.6702767610549927,3.65932559967041,-0.12080127745866776,-3.5721237659454346,2024-04-23T16:52:17.912
-0.6553939580917358,0.2604503035545349,1.447975516319275,2.0062122344970703,0.08944433182477951,-3.4258503913879395,2024-04-23T16:52:17.932
-0.15193209052085876,0.4829331040382385,1.9805893898010254,0.17119380831718445,-0.03404463082551956,-3.059452772140503,2024-04-23T16:52:17.952
0.2255765199661255,0.5734961032867432,2.0262889862060547,-1.2720829248428345,-0.42355582118034363,-2.630333662033081,2024-04-23T16:52:17.972
0.5304668545722961,0.6356469392776489,1.7440749406814575,-1.9890307188034058,-1.0228601694107056,-2.196448802947998,2024-04-23T16:52:17.992
0.9258551001548767,0.6878950595855713,1.378990888595581,-2.2899789810180664,-2.1000351905822754,-1.6563891172409058,2024-04-23T16:52:18.012
1.2644596099853516,0.8166241645812988,1.1757488250732422,-2.898075580596924,-2.919602870941162,-0.9266089200973511,2024-04-23T16:52:18.032
1.6125198602676392,1.065751552581787,0.5892975330352783,-3.6807048320770264,-2.8411669731140137,0.36944693326950073,2024-04-23T16:52:18.052
1.9901227951049805,1.454464316368103,-0.1659468412399292,-3.798402786254883,-2.438185930252075,2.3968358039855957,2024-04-23T16:52:18.072
1.9143975973129272,1.5463542938232422,-1.583943247795105,-2.106766700744629,-1.5174273252487183,4.460631847381592,2024-04-23T16:52:18.092
1.0987471342086792,1.2897897958755493,-2.3855128288269043,-0.3994530141353607,-0.13548238575458527,5.501222610473633,2024-04-23T16:52:18.112
-0.22645634412765503,0.76031494140625,-1.9505386352539062,0.14427167177200317,0.9718469977378845,5.0545735359191895,2024-04-23T16:52:18.132
-1.3502869606018066,0.03460829704999924,-1.6139967441558838,0.6714246869087219,1.0894460678100586,3.679919719696045,2024-04-23T16:52:18.152
-1.917156457901001,-0.44363850355148315,-1.6667377948760986,2.012934446334839,0.5729258060455322,2.035989999771118,2024-04-23T16:52:18.172
-2.2750260829925537,-0.638285756111145,-1.5382804870605469,3.2974588871002197,0.46177154779434204,0.33261430263519287,2024-04-23T16:52:18.192
-2.3488292694091797,-0.6572791337966919,-0.8052236437797546,3.7391064167022705,0.7447072267532349,-1.3029974699020386,2024-04-23T16:52:18.212
-2.1011946201324463,-0.5156917572021484,-0.08317971229553223,3.7333478927612305,0.7327983379364014,-2.6857597827911377,2024-04-23T16:52:18.232
-1.6005747318267822,-0.17651507258415222,0.5555185675621033,3.5137991905212402,0.3886248469352722,-3.5827040672302246,2024-04-23T16:52:18.252
-1.0175471305847168,0.22409021854400635,1.2649939060211182,2.3512048721313477,0.1667652130126953,-3.8937113285064697,2024-04-23T16:52:18.271
-0.3489047884941101,0.5567734241485596,1.9361236095428467,0.4006195664405823,-0.020129937678575516,-3.712614059448242,2024-04-23T16:52:18.291
0.1630110740661621,0.73110431432724,2.172866106033325,-1.1788066625595093,-0.673555314540863,-3.3841936588287354,2024-04-23T16:52:18.311
0.7627813816070557,0.8233742713928223,1.7115190029144287,-1.6910310983657837,-1.7478712797164917,-2.790849208831787,2024-04-23T16:52:18.331
1.3799272775650024,0.9129064679145813,1.160414457321167,-2.205707311630249,-2.234790325164795,-1.6551363468170166,2024-04-23T16:52:18.351
1.8750765323638916,1.1572740077972412,1.0946617126464844,-3.5438663959503174,-2.245112895965576,-0.003391644451767206,2024-04-23T16:52:18.371
2.137697696685791,1.4303722381591797,0.5107507109642029,-4.394378185272217,-1.9535340070724487,2.0566556453704834,2024-04-23T16:52:18.391
2.0452184677124023,1.5468709468841553,-0.6786547899246216,-3.4363949298858643,-1.75825035572052,3.872087240219116,2024-04-23T16:52:18.411
1.313766360282898,1.2511975765228271,-2.0150585174560547,-1.2734506130218506,-0.8491731882095337,4.757561683654785,2024-04-23T16:52:18.431
0.07948672771453857,0.7063180208206177,-2.23252534866333,0.1584683358669281,0.18657788634300232,4.37483549118042,2024-04-23T16:52:18.451
-0.902184784412384,0.10881292819976807,-1.762446641921997,0.8386982083320618,0.8088601231575012,3.444847583770752,2024-04-23T16:52:18.471
-1.5724155902862549,-0.336087703704834,-1.6632815599441528,1.6765954494476318,1.3508689403533936,2.165815591812134,2024-04-23T16:52:18.491
-2.0183377265930176,-0.5677579641342163,-1.5026051998138428,2.7442471981048584,1.4726133346557617,0.5770147442817688,2024-04-23T16:52:18.511
-2.0920238494873047,-0.5848467946052551,-0.9662966132164001,3.6295182704925537,1.1886714696884155,-0.9654868245124817,2024-04-23T16:52:18.531
-1.8984780311584473,-0.44002485275268555,-0.29046177864074707,4.15632963180542,0.5027254223823547,-2.3272602558135986,2024-04-23T16:52:18.551
-1.5298837423324585,-0.1983078420162201,0.4194822311401367,3.9237897396087646,0.16977715492248535,-3.3301477432250977,2024-04-23T16:52:18.571
-0.9610404372215271,0.13420218229293823,1.1964610815048218,2.695930004119873,0.1683696210384369,-3.509408473968506,2024-04-23T16:52:18.591
-0.2562192678451538,0.41799813508987427,1.845183253288269,0.8353403210639954,0.022475728765130043,-3.0916919708251953,2024-04-23T16:52:18.611
0.18216338753700256,0.5527828931808472,2.1489882469177246,-1.0658913850784302,-0.21996256709098816,-2.516497850418091,2024-04-23T16:52:18.631
0.49876460433006287,0.5987999439239502,1.970533847808838,-2.2847206592559814,-1.0187113285064697,-2.038790464401245,2024-04-23T16:52:18.651
0.688004732131958,0.5951776504516602,1.5124385356903076,-2.5795085430145264,-2.1849050521850586,-1.797200322151184,2024-04-23T16:52:18.671
0.9201829433441162,0.6953257918357849,0.8119483590126038,-2.530688524246216,-2.806333065032959,-1.312732458114624,2024-04-23T16:52:18.691
1.374539852142334,1.0053203105926514,0.47584736347198486,-2.913397789001465,-2.853071689605713,-0.14798317849636078,2024-04-23T16:52:18.711
1.8091460466384888,1.3588910102844238,-0.17802542448043823,-3.1275227069854736,-2.284710645675659,1.805950403213501,2024-04-23T16:52:18.731
1.8820902109146118,1.451359510421753,-1.2265708446502686,-2.224501132965088,-1.2724663019180298,3.774717092514038,2024-04-23T16:52:18.751
1.3764641284942627,1.2332364320755005,-2.128206253051758,-0.7754625082015991,0.23501189053058624,5.106059551239014,2024-04-23T16:52:18.771
0.44296300411224365,0.8492578268051147,-2.144282579421997,0.310896098613739,1.1089433431625366,5.405704975128174,2024-04-23T16:52:18.791
-0.6998215913772583,0.32401353120803833,-1.721076488494873,0.9198338389396667,1.4127452373504639,4.52227258682251,2024-04-23T16:52:18.811
-1.638247013092041,-0.25372278690338135,-1.4999451637268066,1.9446933269500732,0.9648682475090027,2.8428540229797363,2024-04-23T16:52:18.831
-2.131772518157959,-0.5820448398590088,-1.38554048538208,3.2573893070220947,0.45303207635879517,1.0121169090270996,2024-04-23T16:52:18.851
-2.2310891151428223,-0.617785632610321,-0.8656607270240784,3.7791061401367188,0.6291564106941223,-0.5562710762023926,2024-04-23T16:52:18.871
-2.0622410774230957,-0.5350213050842285,-0.16415077447891235,3.7058591842651367,0.9261067509651184,-1.797575831413269,2024-04-23T16:52:18.891
-1.677566409111023,-0.31523242592811584,0.3784448504447937,3.345369577407837,0.9985552430152893,-2.725182294845581,2024-04-23T16:52:18.910
-1.2923284769058228,-0.06380406022071838,1.019279956817627,2.597059726715088,0.42486870288848877,-3.4545979499816895,2024-04-23T16:52:18.930
-0.7913296222686768,0.21394303441047668,1.5081502199172974,1.5581814050674438,-0.5536466836929321,-3.82963490486145,2024-04-23T16:52:18.950
-0.30150943994522095,0.43476277589797974,1.798783302307129,0.09227969497442245,-0.9467929005622864,-3.7677791118621826,2024-04-23T16:52:18.970
0.16022714972496033,0.6159085631370544,1.7597401142120361,-1.2246017456054688,-0.9657843708992004,-3.292910099029541,2024-04-23T16:52:18.990
0.5851379632949829,0.7329007983207703,1.6947591304779053,-2.4525246620178223,-0.9903691411018372,-2.7061049938201904,2024-04-23T16:52:19.010
0.9994442462921143,0.8863875865936279,1.4113709926605225,-3.3007700443267822,-1.44058358669281,-2.034836769104004,2024-04-23T16:52:19.030
1.4279385805130005,1.1799678802490234,0.9243716597557068,-3.6708920001983643,-2.0723369121551514,-1.0190722942352295,2024-04-23T16:52:19.050
1.8911412954330444,1.5044779777526855,0.19664716720581055,-3.499093770980835,-2.4850354194641113,0.5493791103363037,2024-04-23T16:52:19.070
2.252256155014038,1.6993025541305542,-0.8179028034210205,-2.6913676261901855,-2.106548547744751,2.75040602684021,2024-04-23T16:52:19.090
2.078197956085205,1.6116023063659668,-1.4949548244476318,-1.7280304431915283,-1.0294549465179443,4.7502336502075195,2024-04-23T16:52:19.110
1.291747808456421,1.304250955581665,-1.7341105937957764,-0.8231868147850037,-0.16832098364830017,5.842714786529541,2024-04-23T16:52:19.130
0.05301940441131592,0.7818989157676697,-1.5199270248413086,-0.302684485912323,0.31879204511642456,5.559328556060791,2024-04-23T16:52:19.150
-1.1182901859283447,0.1417461484670639,-1.3068547248840332,0.11634695529937744,0.566703200340271,4.416793346405029,2024-04-23T16:52:19.170
-1.7650048732757568,-0.3476484715938568,-1.4496302604675293,1.1339716911315918,0.7252908945083618,3.08711838722229,2024-04-23T16:52:19.190
-2.2652549743652344,-0.6381474137306213,-1.3629169464111328,2.1195764541625977,1.0378921031951904,1.3973628282546997,2024-04-23T16:52:19.210
-2.489602565765381,-0.7537965774536133,-0.8724628686904907,2.7203938961029053,1.0192832946777344,-0.45298466086387634,2024-04-23T16:52:19.230
-2.2259819507598877,-0.6460422873497009,-0.35113275051116943,3.194068670272827,0.7617676258087158,-1.9970380067825317,2024-04-23T16:52:19.250
-1.7194958925247192,-0.33244115114212036,0.09205567836761475,3.3806312084198,0.5962398648262024,-3.0076537132263184,2024-04-23T16:52:19.270
-1.1280113458633423,0.014708250761032104,0.6431745290756226,2.97005558013916,0.4336016774177551,-3.451704740524292,2024-04-23T16:52:19.290
-0.7068660259246826,0.26780447363853455,1.3351221084594727,1.8494715690612793,-0.1071513369679451,-3.6375961303710938,2024-04-23T16:52:19.310
-0.3509953022003174,0.4425460696220398,1.8312389850616455,0.1090279072523117,-0.5796160101890564,-3.6083123683929443,2024-04-23T16:52:19.330
0.10018840432167053,0.6274210214614868,1.9880776405334473,-1.6325359344482422,-0.4955294132232666,-3.210602283477783,2024-04-23T16:52:19.350
0.6224342584609985,0.7294610738754272,1.7210118770599365,-2.8040425777435303,-0.534188985824585,-2.5813443660736084,2024-04-23T16:52:19.369
1.127333641052246,0.8587909936904907,1.3486378192901611,-3.403414011001587,-0.9662346243858337,-1.777693510055542,2024-04-23T16:52:19.389
1.5924971103668213,1.148854374885559,1.0360196828842163,-4.017960548400879,-1.5359644889831543,-0.6275774836540222,2024-04-23T16:52:19.409
1.9610267877578735,1.4510918855667114,0.3564702272415161,-3.8827733993530273,-2.1189661026000977,0.8821853399276733,2024-04-23T16:52:19.429
2.1124746799468994,1.5789964199066162,-0.5649814009666443,-3.1916143894195557,-2.389777421951294,2.7781848907470703,2024-04-23T16:52:19.449
1.9822688102722168,1.5347299575805664,-1.3956623077392578,-2.0539181232452393,-1.8229786157608032,4.885196685791016,2024-04-23T16:52:19.470
1.3064236640930176,1.2779959440231323,-2.0926551818847656,-0.5681396722793579,-0.6666742563247681,6.393566131591797,2024-04-23T16:52:19.489
-0.013762474060058594,0.8907517194747925,-2.152583599090576,0.5229955911636353,0.46889761090278625,6.282411575317383,2024-04-23T16:52:19.509
-1.4922813177108765,0.3208567202091217,-1.799362301826477,1.2184028625488281,0.9343247413635254,4.379253387451172,2024-04-23T16:52:19.529
-2.435603380203247,-0.3100246489048004,-1.6287121772766113,2.5520269870758057,0.5932390093803406,1.9487756490707397,2024-04-23T16:52:19.549
-2.3507654666900635,-0.45863279700279236,-1.4889211654663086,3.9327950477600098,0.3492771089076996,0.2704138159751892,2024-04-23T16:52:19.569
-2.192657470703125,-0.40711867809295654,-0.8347340226173401,4.344738960266113,0.8509547710418701,-1.1048942804336548,2024-04-23T16:52:19.589
-2.018399715423584,-0.3179031014442444,-0.10307258367538452,4.348681926727295,0.9143735766410828,-2.465601921081543,2024-04-23T16:52:19.609
-1.6548588275909424,-0.07438908517360687,0.5238776206970215,4.175681114196777,0.41144227981567383,-3.566287040710449,2024-04-23T16:52:19.629
-1.1175520420074463,0.18362465500831604,1.172647476196289,3.29365611076355,-0.20137597620487213,-4.1889472007751465,2024-04-23T16:52:19.649
-0.5315853953361511,0.4276456832885742,1.7224183082580566,1.7600055932998657,-0.6115747094154358,-4.163561820983887,2024-04-23T16:52:19.669
0.020900100469589233,0.5975520610809326,2.0020408630371094,0.045521192252635956,-0.988713264465332,-3.7230494022369385,2024-04-23T16:52:19.689
0.4514442980289459,0.6820493936538696,1.9064257144927979,-1.514785647392273,-0.8481820821762085,-3.0560567378997803,2024-04-23T16:52:19.709
0.8544119596481323,0.6976760625839233,1.5857312679290771,-2.6610398292541504,-0.8459694385528564,-2.3667194843292236,2024-04-23T16:52:19.729
1.2156819105148315,0.8194613456726074,1.2438316345214844,-3.3547213077545166,-1.3698638677597046,-1.6498920917510986,2024-04-23T16:52:19.749
1.6204383373260498,1.091202974319458,0.7059931755065918,-3.612285852432251,-2.12331223487854,-0.4730771481990814,2024-04-23T16:52:19.769
1.8790364265441895,1.3603473901748657,-0.003317892551422119,-3.3091299533843994,-2.6384224891662598,1.081557273864746,2024-04-23T16:52:19.789
1.8757359981536865,1.3486676216125488,-1.2893749475479126,-1.7312015295028687,-2.1476306915283203,2.891221046447754,2024-04-23T16:52:19.809
1.4597625732421875,1.1252211332321167,-1.9890410900115967,-0.1972067654132843,-1.0288634300231934,4.2753825187683105,2024-04-23T16:52:19.829
0.37160956859588623,0.7108191251754761,-1.8281245231628418,0.4218864142894745,0.2597450017929077,4.446178913116455,2024-04-23T16:52:19.849
-0.8159674406051636,0.14564895629882812,-1.3895149230957031,0.7805171608924866,0.9093583822250366,3.5297601222991943,2024-04-23T16:52:19.869
-1.490647315979004,-0.3036808371543884,-1.4213733673095703,1.7557852268218994,1.0225162506103516,2.2255945205688477,2024-04-23T16:52:19.889
-1.8454360961914062,-0.5163074135780334,-1.2146093845367432,2.8057196140289307,0.6098097562789917,0.7029223442077637,2024-04-23T16:52:19.909
-1.886206865310669,-0.5554909706115723,-0.6480399370193481,3.3345794677734375,0.4076828956604004,-0.7095506191253662,2024-04-23T16:52:19.929
-1.6895824670791626,-0.4567854404449463,-0.17686015367507935,3.4039347171783447,0.7539250254631042,-1.694228172302246,2024-04-23T16:52:19.949
-1.2889509201049805,-0.23178967833518982,0.4301251769065857,2.8111379146575928,1.3535255193710327,-2.106973648071289,2024-04-23T16:52:19.969
-0.9175468683242798,-0.032976359128952026,1.055849552154541,1.8355307579040527,1.186014175415039,-2.3246867656707764,2024-04-23T16:52:19.988
-0.6607608795166016,0.14671090245246887,1.564046859741211,0.790937066078186,0.023402636870741844,-2.7156777381896973,2024-04-23T16:52:20.008
-0.355389267206192,0.3043861985206604,1.6860463619232178,-0.32848596572875977,-0.45085009932518005,-2.917001485824585,2024-04-23T16:52:20.028
0.16464269161224365,0.494272381067276,1.5311574935913086,-1.2928032875061035,-0.5125623941421509,-2.6042449474334717,2024-04-23T16:52:20.048
0.7362515330314636,0.6252668499946594,1.4405039548873901,-2.2786266803741455,-0.6391419768333435,-1.899569034576416,2024-04-23T16:52:20.068
1.1317625045776367,0.7103339433670044,1.4034817218780518,-3.4039509296417236,-0.8345526456832886,-1.1216175556182861,2024-04-23T16:52:20.088
1.4162318706512451,0.8606537580490112,1.0815448760986328,-4.039927005767822,-1.3555083274841309,-0.2801966369152069,2024-04-23T16:52:20.108
1.6453979015350342,1.0054857730865479,0.2810170650482178,-3.712568998336792,-2.0246617794036865,0.7892125248908997,2024-04-23T16:52:20.128
1.6337872743606567,1.0553512573242188,-0.5667405724525452,-2.722696542739868,-2.4314513206481934,1.916483759880066,2024-04-23T16:52:20.148
1.457793951034546,1.0281987190246582,-1.3943281173706055,-1.5776311159133911,-1.8181304931640625,3.187591791152954,2024-04-23T16:52:20.168
1.0880424976348877,0.9183982014656067,-1.646498680114746,-0.7983580231666565,-0.8692917227745056,4.3619866371154785,2024-04-23T16:52:20.188
0.36284562945365906,0.6966841220855713,-1.749467372894287,-0.03737383335828781,-0.22809648513793945,4.745871543884277,2024-04-23T16:52:20.208
-0.6886470317840576,0.3039003312587738,-1.7358953952789307,0.7969761490821838,0.620388925075531,3.9958548545837402,2024-04-23T16:52:20.228
-1.546095848083496,-0.07719096541404724,-1.724769115447998,1.9945725202560425,0.8224456906318665,2.5204288959503174,2024-04-23T16:52:20.248
-1.933294653892517,-0.23958656191825867,-1.333451747894287,3.057086944580078,0.4101521372795105,0.9117797017097473,2024-04-23T16:52:20.268
-1.964372992515564,-0.29566147923469543,-0.6994602680206299,3.502911329269409,0.32222869992256165,-0.48736125230789185,2024-04-23T16:52:20.288
-1.8186770677566528,-0.3404035270214081,-0.16831254959106445,3.5489859580993652,0.4739990830421448,-1.6761279106140137,2024-04-23T16:52:20.308
-1.5143816471099854,-0.22572509944438934,0.2348918318748474,3.535992383956909,0.40629303455352783,-2.5798676013946533,2024-04-23T16:52:20.328
-1.1607540845870972,-0.03624120354652405,0.678342342376709,3.217700481414795,0.25903448462486267,-3.2074077129364014,2024-04-23T16:52:20.348
-0.759137749671936,0.1872522234916687,1.216184377670288,2.1439061164855957,0.2031124085187912,-3.3671014308929443,2024-04-23T16:52:20.368
-0.25468987226486206,0.39936304092407227,1.7116769552230835,0.44376832246780396,0.12550055980682373,-3.0299367904663086,2024-04-23T16:52:20.388
0.17210239171981812,0.472268283367157,1.7767330408096313,-1.0802208185195923,-0.10894809663295746,-2.594101905822754,2024-04-23T16:52:20.408
0.4103596806526184,0.5069586038589478,1.4084100723266602,-1.9369968175888062,-0.19865630567073822,-2.330954074859619,2024-04-23T16:52:20.428
0.701117753982544,0.6126188039779663,0.8342947959899902,-1.882102608680725,-0.6863867044448853,-1.9573860168457031,2024-04-23T16:52:20.448
1.0430257320404053,0.7513809204101562,0.4439723491668701,-1.765718698501587,-1.0302822589874268,-1.37476646900177,2024-04-23T16:52:20.468
1.3472450971603394,0.8236209154129028,0.31578344106674194,-1.9860285520553589,-1.1178351640701294,-0.6282275319099426,2024-04-23T16:52:20.488
1.6351699829101562,0.9167742133140564,0.16577738523483276,-2.2675678730010986,-1.1121711730957031,0.4593437612056732,2024-04-23T16:52:20.508
1.9025559425354004,0.9506060481071472,-0.17339622974395752,-2.2179617881774902,-1.2250603437423706,1.9249025583267212,2024-04-23T16:52:20.527
1.7589590549468994,0.8360453248023987,-0.6976953744888306,-1.632910966873169,-1.2751585245132446,3.367232322692871,2024-04-23T16:52:20.548
1.1119792461395264,0.6400174498558044,-1.2296500205993652,-0.7493176460266113,-0.8582143783569336,4.216550350189209,2024-04-23T16:52:20.568
0.04011654853820801,0.35942500829696655,-1.4598721265792847,0.10011333972215652,-0.2980756163597107,4.104432582855225,2024-04-23T16:52:20.587
-0.8855149745941162,0.07993632555007935,-1.519144058227539,0.7729314565658569,0.5224089026451111,3.438098192214966,2024-04-23T16:52:20.607
-1.5924708843231201,-0.20065900683403015,-1.442697286605835,1.4806631803512573,1.011348843574524,2.1914987564086914,2024-04-23T16:52:20.627
-1.9696239233016968,-0.40809693932533264,-1.1969881057739258,2.4488930702209473,0.707301139831543,0.7017119526863098,2024-04-23T16:52:20.647
-1.9214370250701904,-0.4473094642162323,-0.797264814376831,3.184678554534912,0.33994796872138977,-0.6750496625900269,2024-04-23T16:52:20.667
-1.6729148626327515,-0.3086942136287689,-0.28016847372055054,3.49703311920166,0.06531351059675217,-1.7338101863861084,2024-04-23T16:52:20.687
-1.2849968671798706,-0.08805480599403381,0.2636041045188904,3.2692198753356934,0.0007051863940432668,-2.36889386177063,2024-04-23T16:52:20.707
-0.8560724258422852,0.1066843569278717,0.8583606481552124,2.4130032062530518,-0.09703852981328964,-2.632154941558838,2024-04-23T16:52:20.727
-0.43705829977989197,0.26512062549591064,1.32883620262146,1.2303334474563599,-0.39414751529693604,-2.644202947616577,2024-04-23T16:52:20.747
-0.08934307098388672,0.3762567341327667,1.5085630416870117,0.005090952385216951,-0.4661487638950348,-2.5038115978240967,2024-04-23T16:52:20.767
0.2662190794944763,0.4378642737865448,1.4712458848953247,-0.9892598390579224,-0.5760036706924438,-2.296783924102783,2024-04-23T16:52:20.787
0.59120112657547,0.454563170671463,1.2681092023849487,-1.5727579593658447,-0.9874999523162842,-2.1057798862457275,2024-04-23T16:52:20.807
0.9376143217086792,0.5625275373458862,1.0592472553253174,-2.0648293495178223,-1.2795131206512451,-1.7228094339370728,2024-04-23T16:52:20.826
1.3883979320526123,0.744756817817688,0.7734687924385071,-2.5970137119293213,-1.2475910186767578,-0.825531542301178,2024-04-23T16:52:20.846
1.7701709270477295,0.8971030712127686,0.5375558137893677,-3.189085006713867,-1.0162632465362549,0.4950069785118103,2024-04-23T16:52:20.866
1.9341273307800293,0.9477277994155884,-0.038523972034454346,-2.9865012168884277,-1.1280956268310547,1.9508087635040283,2024-04-23T16:52:20.886
1.7108774185180664,0.8649328947067261,-0.9531174898147583,-1.8506598472595215,-1.1266719102859497,3.1696455478668213,2024-04-23T16:52:20.906
1.047400951385498,0.663122296333313,-1.4790005683898926,-0.7538624405860901,-0.8186022639274597,3.756446599960327,2024-04-23T16:52:20.926
0.2351742684841156,0.5030034780502319,-1.728322982788086,0.15152955055236816,-0.4465094208717346,3.79252290725708,2024-04-23T16:52:20.946
-0.5779078602790833,0.25399062037467957,-1.8397986888885498,1.0002446174621582,0.13081057369709015,3.2999753952026367,2024-04-23T16:52:20.966
-1.2076904773712158,-0.012962758541107178,-1.8529727458953857,2.20542049407959,0.47429174184799194,2.4320671558380127,2024-04-23T16:52:20.986
-1.6600840091705322,-0.16170766949653625,-1.4747251272201538,3.252779483795166,0.3380225896835327,1.2585633993148804,2024-04-23T16:52:21.006
-1.9124606847763062,-0.2553529143333435,-0.6579962968826294,3.619941234588623,0.1455337405204773,-0.1336178332567215,2024-04-23T16:52:21.026
-1.803558349609375,-0.27626603841781616,-0.034278690814971924,3.5874712467193604,0.0946379005908966,-1.2684440612792969,2024-04-23T16:52:21.046
-1.3875726461410522,-0.15503358840942383,0.45874810218811035,3.2366840839385986,0.07110579311847687,-1.9647032022476196,2024-04-23T16:52:21.066
-0.9887920022010803,0.031643301248550415,1.0719523429870605,2.331517457962036,-0.09316188097000122,-2.363645553588867,2024-04-23T16:52:21.086
-0.6223104000091553,0.20803424715995789,1.5625473260879517,1.0246145725250244,-0.2596643567085266,-2.5617434978485107,2024-04-23T16:52:21.106
-0.2789703607559204,0.30055662989616394,1.6979689598083496,-0.14129365980625153,-0.49631109833717346,-2.569343328475952,2024-04-23T16:52:21.126
0.02848285436630249,0.33236563205718994,1.6826444864273071,-1.3216489553451538,-0.43359053134918213,-2.4713547229766846,2024-04-23T16:52:21.146
0.3851217031478882,0.36376163363456726,1.6192032098770142,-2.3131420612335205,-0.7252098917961121,-2.3741438388824463,2024-04-23T16:52:21.166
0.7724965810775757,0.5122265219688416,1.3711111545562744,-3.029664993286133,-1.3527225255966187,-2.1351194381713867,2024-04-23T16:52:21.188
1.2572027444839478,0.8554572463035583,0.8284415602684021,-3.315850019454956,-1.8085813522338867,-1.385355830192566,2024-04-23T16:52:21.208
1.7019927501678467,1.1220158338546753,0.02625298500061035,-3.161504030227661,-1.7308074235916138,-0.061485566198825836,2024-04-23T16:52:21.228
2.0408105850219727,1.316964864730835,-0.6051605939865112,-2.9819931983947754,-1.332995891571045,1.8017278909683228,2024-04-23T16:52:21.248
1.94642174243927,1.2558181285858154,-1.3359615802764893,-2.143615245819092,-0.7322161197662354,3.5703535079956055,2024-04-23T16:52:21.268
1.2569749355316162,1.000604271888733,-1.9607021808624268,-0.731217086315155,-0.11037561297416687,4.5194549560546875,2024-04-23T16:52:21.288
0.03843909502029419,0.5938700437545776,-1.884819507598877,0.503935694694519,-0.11872792989015579,4.303740501403809,2024-04-23T16:52:21.308
-0.8716413974761963,0.18264323472976685,-1.719229817390442,1.467813491821289,0.07227211445569992,3.575180768966675,2024-04-23T16:52:21.328
-1.596924066543579,-0.16127529740333557,-1.4795994758605957,2.2396445274353027,0.49215343594551086,2.4831199645996094,2024-04-23T16:52:21.348
-2.120925188064575,-0.4242376983165741,-1.0327004194259644,2.838198184967041,0.6295846700668335,0.9400145411491394,2024-04-23T16:52:21.368
-2.2724058628082275,-0.5659727454185486,-0.5126209259033203,3.2906758785247803,0.3436671495437622,-0.702762246131897,2024-04-23T16:52:21.388
-2.0164923667907715,-0.4808737635612488,-0.05990290641784668,3.6083877086639404,0.059383854269981384,-2.091496467590332,2024-04-23T16:52:21.408
-1.6371607780456543,-0.2677117884159088,0.4859301447868347,3.3856394290924072,-0.03945920616388321,-3.1511874198913574,2024-04-23T16:52:21.428
-1.0730663537979126,0.041936784982681274,1.2074213027954102,2.1976125240325928,-0.04336288571357727,-3.5717031955718994,2024-04-23T16:52:21.448
-0.42717626690864563,0.3172132670879364,1.8016653060913086,0.33587729930877686,-0.04030770808458328,-3.429816722869873,2024-04-23T16:52:21.468
0.0402911901473999,0.43701568245887756,1.924058198928833,-1.2618526220321655,0.01286405697464943,-3.2030763626098633,2024-04-23T16:52:21.488
0.405300110578537,0.5058989524841309,1.62453293800354,-2.0039732456207275,-0.6845344305038452,-3.081817388534546,2024-04-23T16:52:21.508
0.7844523191452026,0.6416698098182678,1.2056989669799805,-2.2669105529785156,-1.5773311853408813,-2.8245580196380615,2024-04-23T16:52:21.528
1.3168835639953613,0.8945909738540649,0.9537696838378906,-2.974655866622925,-1.6401029825210571,-1.8527905941009521,2024-04-23T16:52:21.548
1.891789197921753,1.1871027946472168,0.6524794697761536,-3.650644540786743,-1.598944067955017,-0.2034781277179718,2024-04-23T16:52:21.567
2.194333553314209,1.3788602352142334,-0.11338359117507935,-3.3799498081207275,-1.844277024269104,1.7494874000549316,2024-04-23T16:52:21.588
1.9856301546096802,1.3687634468078613,-1.1381540298461914,-1.965144157409668,-1.638413906097412,3.467648983001709,2024-04-23T16:52:21.607
1.3391773700714111,1.1335090398788452,-1.8985369205474854,-0.4115169644355774,-0.6502066254615784,4.618766784667969,2024-04-23T16:52:21.628
0.35564446449279785,0.8015293478965759,-1.7336795330047607,0.33456578850746155,0.07410375773906708,4.78408145904541,2024-04-23T16:52:21.648
-0.7830083966255188,0.27963101863861084,-1.33164381980896,0.6067168712615967,0.47492220997810364,3.9148504734039307,2024-04-23T16:52:21.667
-1.6294914484024048,-0.21719765663146973,-1.2704691886901855,1.3191425800323486,0.6371341943740845,2.4455440044403076,2024-04-23T16:52:21.687
-1.935654640197754,-0.4620937705039978,-1.268204689025879,2.510932683944702,0.49142733216285706,0.977549135684967,2024-04-23T16:52:21.707
-2.0966193675994873,-0.5911668539047241,-0.762095034122467,3.1068830490112305,0.5465270280838013,-0.6395936608314514,2024-04-23T16:52:21.727
-1.9422640800476074,-0.5582208037376404,-0.16654503345489502,3.4237446784973145,0.16083869338035583,-2.0932822227478027,2024-04-23T16:52:21.747
-1.4861258268356323,-0.3104214072227478,0.3373005986213684,3.428662061691284,-0.3380332589149475,-3.0830283164978027,2024-04-23T16:52:21.767
-0.9714834094047546,-0.04737967252731323,0.8241512775421143,2.767197608947754,-0.369608610868454,-3.4973506927490234,2024-04-23T16:52:21.787
-0.3801007866859436,0.21660831570625305,1.3859755992889404,1.3407293558120728,-0.3483297824859619,-3.220982551574707,2024-04-23T16:52:21.807
0.10762625932693481,0.39909592270851135,1.8557676076889038,-0.5900985598564148,-0.3995005488395691,-2.646027088165283,2024-04-23T16:52:21.827
0.37618348002433777,0.5341050624847412,1.8209636211395264,-1.9942734241485596,-0.5007336735725403,-2.125828266143799,2024-04-23T16:52:21.847
