ax,ay,az,gx,gy,gz,timestamp
-0.3231189250946045,1.2279198169708252,-3.2745554447174072,6.832432270050049,1.4976394176483154,1.289726734161377,2024-04-23T16:45:14.955
-0.6178603172302246,1.5420225858688354,-2.1647984981536865,8.059925079345703,2.348484516143799,1.1822948455810547,2024-04-23T16:45:14.974
-0.577292799949646,1.8869208097457886,-1.5736186504364014,9.278288841247559,2.5489089488983154,1.229800820350647,2024-04-23T16:45:14.994
-0.6343656778335571,2.0927634239196777,-0.6750698089599609,9.90905475616455,1.929521918296814,1.0871275663375854,2024-04-23T16:45:15.014
-0.6747840642929077,2.1995882987976074,-0.3163539171218872,10.54421615600586,1.2920273542404175,0.7148815989494324,2024-04-23T16:45:15.034
-0.5073906183242798,2.381160020828247,0.13761019706726074,10.902827262878418,0.69293212890625,0.44851914048194885,2024-04-23T16:45:15.053
-0.5357969999313354,2.275444746017456,0.9057588577270508,10.35387134552002,-0.4650634825229645,-0.20099999010562897,2024-04-23T16:45:15.074
-0.3316568434238434,1.9665939807891846,1.420237421989441,8.871171951293945,-1.045101284980774,-0.8056108355522156,2024-04-23T16:45:15.094
-0.026093341410160065,1.6864105463027954,1.6936217546463013,6.829513072967529,-0.6457861661911011,-0.8532648086547852,2024-04-23T16:45:15.114
0.12656614184379578,1.4277141094207764,1.7320196628570557,4.9402594566345215,0.05771730840206146,-0.5689787864685059,2024-04-23T16:45:15.134
0.1493280529975891,1.19586980342865,1.7217772006988525,3.514941692352295,-0.0820949450135231,-0.4264355003833771,2024-04-23T16:45:15.154
0.08234080672264099,1.0583090782165527,1.646890640258789,2.424935817718506,-0.3351770341396332,-0.46840426325798035,2024-04-23T16:45:15.173
0.15593788027763367,0.9986683130264282,1.573285698890686,1.4487754106521606,-0.3464805483818054,-0.3797161877155304,2024-04-23T16:45:15.193
0.1850019097328186,0.9488517045974731,1.6709376573562622,0.23813283443450928,-0.3247995376586914,-0.24214795231819153,2024-04-23T16:45:15.213
0.19425387680530548,0.9163795113563538,1.6901487112045288,-1.0039563179016113,-0.43205806612968445,-0.08129358291625977,2024-04-23T16:45:15.233
0.09316306561231613,0.8903040885925293,1.677221417427063,-2.2115654945373535,-0.5785535573959351,-0.04950420558452606,2024-04-23T16:45:15.253
0.10022980719804764,0.9331510663032532,1.586137056350708,-3.274794816970825,-0.7478703260421753,0.07349200546741486,2024-04-23T16:45:15.273
0.004218023270368576,1.044018268585205,1.6147500276565552,-4.458468437194824,-1.0218416452407837,0.14697608351707458,2024-04-23T16:45:15.293
-0.15487271547317505,1.1560190916061401,1.5335302352905273,-5.650825023651123,-1.190943717956543,0.08613698184490204,2024-04-23T16:45:15.313
-0.193928062915802,1.3375790119171143,1.4432828426361084,-6.958446979522705,-1.0202853679656982,0.07530289888381958,2024-04-23T16:45:15.333
-0.30448949337005615,1.5025508403778076,1.3784973621368408,-8.452005386352539,-0.7113592028617859,-0.056718409061431885,2024-04-23T16:45:15.353
-0.2862097918987274,1.7517962455749512,1.2008240222930908,-9.826757431030273,-0.6593099236488342,-0.06569276005029678,2024-04-23T16:45:15.373
-0.30321118235588074,1.9521063566207886,0.7666075229644775,-10.656754493713379,-1.0435278415679932,0.01616748422384262,2024-04-23T16:45:15.393
-0.4531376361846924,1.9960803985595703,0.008729040622711182,-10.592083930969238,-1.190316915512085,-0.0397101566195488,2024-04-23T16:45:15.413
-0.6421853303909302,1.7753900289535522,-0.5955897569656372,-9.841533660888672,-1.3028008937835693,-0.5064365863800049,2024-04-23T16:45:15.433
-0.6163597106933594,1.4477148056030273,-0.9483531713485718,-8.554858207702637,-2.1306934356689453,-1.008303165435791,2024-04-23T16:45:15.453
-0.4743514955043793,1.3207645416259766,-0.98961341381073,-7.597569465637207,-3.123504638671875,-1.1247351169586182,2024-04-23T16:45:15.473
-0.3919404149055481,1.5880531072616577,-1.048577070236206,-7.503480911254883,-3.020420789718628,-0.8435887694358826,2024-04-23T16:45:15.493
-0.17554453015327454,1.6830904483795166,-1.8906371593475342,-6.634021759033203,-2.385737657546997,-0.3370925486087799,2024-04-23T16:45:15.513
-0.23880019783973694,1.5423355102539062,-2.6475863456726074,-4.760666847229004,-2.209747791290283,-0.10826601833105087,2024-04-23T16:45:15.533
-0.37394049763679504,1.3396786451339722,-3.228238821029663,-2.343306541442871,-1.8064998388290405,-0.14433534443378448,2024-04-23T16:45:15.553
-0.2408505082130432,1.1985324621200562,-3.5860252380371094,0.42899441719055176,-1.351660132408142,-0.00702916644513607,2024-04-23T16:45:15.573
-0.2147839069366455,1.1892164945602417,-3.4684102535247803,2.701502561569214,0.056890904903411865,0.4209946095943451,2024-04-23T16:45:15.593
-0.24545857310295105,1.272731065750122,-3.0108542442321777,4.3964457511901855,1.467673420906067,1.0513157844543457,2024-04-23T16:45:15.613
-0.4793321490287781,1.371889352798462,-2.391282558441162,5.548205375671387,2.705439567565918,1.4206624031066895,2024-04-23T16:45:15.633
-0.7705740928649902,1.5907697677612305,-2.058605670928955,6.889857769012451,3.2092549800872803,1.2796612977981567,2024-04-23T16:45:15.653
-0.7292842864990234,2.0470476150512695,-1.8989601135253906,8.733394622802734,2.79620099067688,1.0438776016235352,2024-04-23T16:45:15.673
-0.7083919048309326,2.4423341751098633,-1.5889538526535034,10.510929107666016,2.790970802307129,0.9179399609565735,2024-04-23T16:45:15.693
-0.7950648069381714,2.8884902000427246,-0.9737169742584229,11.95849895477295,2.5295777320861816,0.8340684771537781,2024-04-23T16:45:15.713
-1.116172432899475,3.079585552215576,0.1271282434463501,12.392317771911621,1.3372652530670166,0.08399530500173569,2024-04-23T16:45:15.733
-0.9236682653427124,2.9813294410705566,0.8850659728050232,11.833292007446289,0.5060285329818726,-0.7024542689323425,2024-04-23T16:45:15.753
-0.47883811593055725,2.783681869506836,1.3260358572006226,10.612682342529297,0.35517334938049316,-0.9017466306686401,2024-04-23T16:45:15.773
-0.20485606789588928,2.418684482574463,1.7249798774719238,9.003501892089844,-0.16065281629562378,-0.893313467502594,2024-04-23T16:45:15.793
0.022743184119462967,2.0177295207977295,1.778059720993042,7.453714370727539,-0.6504748463630676,-0.8426755666732788,2024-04-23T16:45:15.812
0.14912694692611694,1.7151837348937988,1.8600950241088867,5.587316989898682,-0.24749869108200073,-0.6875597238540649,2024-04-23T16:45:15.832
0.24101467430591583,1.4816515445709229,1.7275789976119995,3.9192497730255127,0.4478510320186615,-0.3425174057483673,2024-04-23T16:45:15.852
0.28452131152153015,1.2894017696380615,1.6414356231689453,2.65883469581604,0.41707533597946167,-0.02472905069589615,2024-04-23T16:45:15.872
0.2204180359840393,1.0917222499847412,1.6038310527801514,1.744680643081665,-0.31995609402656555,0.009111721068620682,2024-04-23T16:45:15.892
0.2692193388938904,1.0170438289642334,1.56522536277771,0.6821653842926025,-0.38501405715942383,0.21018733084201813,2024-04-23T16:45:15.912
0.3007201552391052,0.9593687653541565,1.5279691219329834,-0.4019091725349426,-0.2368714064359665,0.5356799364089966,2024-04-23T16:45:15.932
0.24901911616325378,0.9045619368553162,1.5533840656280518,-1.5503320693969727,-0.1621330976486206,0.7801346778869629,2024-04-23T16:45:15.952
0.16465485095977783,0.9062492251396179,1.5985437631607056,-2.772688388824463,-0.3059961497783661,0.8837103247642517,2024-04-23T16:45:15.972
0.04037182033061981,0.9639459252357483,1.5330307483673096,-3.9120142459869385,-0.5222969055175781,0.81150221824646,2024-04-23T16:45:15.992
0.013222179375588894,1.0915157794952393,1.411928653717041,-4.924152851104736,-0.6204804182052612,0.7846631407737732,2024-04-23T16:45:16.012
0.04215443506836891,1.2344563007354736,1.4542969465255737,-6.1367316246032715,-0.7804343104362488,0.9211687445640564,2024-04-23T16:45:16.032
-0.07264527678489685,1.3767023086547852,1.4572194814682007,-7.6627936363220215,-0.6451773643493652,0.9567986726760864,2024-04-23T16:45:16.052
-0.3545532524585724,1.4992378950119019,1.386003851890564,-9.390878677368164,-0.23438675701618195,0.5165557861328125,2024-04-23T16:45:16.072
-0.4838016927242279,1.8256250619888306,1.4315059185028076,-11.324237823486328,-0.21410372853279114,-0.01481090858578682,2024-04-23T16:45:16.092
-0.38236087560653687,2.2613885402679443,1.0874912738800049,-12.946494102478027,-0.025418534874916077,-0.06231850013136864,2024-04-23T16:45:16.112
-0.26281583309173584,2.5623631477355957,0.42956602573394775,-13.848492622375488,0.38190314173698425,0.1308983415365219,2024-04-23T16:45:16.132
-0.4447850286960602,2.7613070011138916,-0.16284465789794922,-13.742155075073242,-0.6510841846466064,-0.12873612344264984,2024-04-23T16:45:16.152
-1.0874414443969727,2.8306589126586914,-1.1480052471160889,-11.890578269958496,-3.188392400741577,-1.1251153945922852,2024-04-23T16:45:16.172
-1.2139068841934204,2.6304097175598145,-2.7880373001098633,-8.445047378540039,-4.594564437866211,-2.0985608100891113,2024-04-23T16:45:16.192
-0.6222995519638062,2.178253173828125,-4.287779808044434,-4.163723945617676,-3.884457588195801,-2.1064884662628174,2024-04-23T16:45:16.212
0.07965052127838135,1.8194169998168945,-4.618095397949219,-0.42597395181655884,-2.0268774032592773,-0.9459074139595032,2024-04-23T16:45:16.232
0.22433730959892273,1.7268352508544922,-3.772040367126465,1.4148893356323242,0.416215181350708,0.6486546993255615,2024-04-23T16:45:16.252
-0.07743000984191895,1.4959033727645874,-3.1671249866485596,2.7195329666137695,2.124612808227539,1.6405187845230103,2024-04-23T16:45:16.272
-0.5934592485427856,1.2691106796264648,-2.8194057941436768,4.575870990753174,2.4733126163482666,1.576921820640564,2024-04-23T16:45:16.292
-0.8424295783042908,1.2528448104858398,-2.2665371894836426,6.564752101898193,1.8953828811645508,0.8918250203132629,2024-04-23T16:45:16.312
-0.7412613034248352,1.5113232135772705,-1.62577223777771,7.904018402099609,1.7662382125854492,0.39784350991249084,2024-04-23T16:45:16.332
-0.4907360076904297,1.8387527465820312,-1.232950210571289,8.921662330627441,2.0722427368164062,0.4271492063999176,2024-04-23T16:45:16.352
-0.5700782537460327,2.0948784351348877,-0.6885522603988647,9.584080696105957,2.18426251411438,0.3921706974506378,2024-04-23T16:45:16.372
-0.819874107837677,2.095884323120117,-0.11016100645065308,9.867440223693848,2.0426313877105713,-0.10428058356046677,2024-04-23T16:45:16.392
-0.6729963421821594,2.1720237731933594,0.22079962491989136,10.109257698059082,1.7619855403900146,-0.42192912101745605,2024-04-23T16:45:16.412
-0.4677208960056305,2.159579277038574,0.8498439192771912,9.802021026611328,0.8821002840995789,-0.5627104640007019,2024-04-23T16:45:16.431
-0.30391258001327515,1.9429727792739868,1.448238492012024,8.623906135559082,-0.009631611406803131,-0.7600661516189575,2024-04-23T16:45:16.451
-0.20588146150112152,1.586203694343567,1.6535518169403076,7.074926376342773,-0.18594197928905487,-0.9784738421440125,2024-04-23T16:45:16.471
0.0402221754193306,1.344685435295105,1.7293429374694824,5.436280727386475,0.22803868353366852,-0.8447788953781128,2024-04-23T16:45:16.491
0.08603022992610931,1.1193395853042603,1.8368723392486572,3.9584896564483643,0.17559167742729187,-0.7130563259124756,2024-04-23T16:45:16.511
0.06773350387811661,0.9489407539367676,1.7387378215789795,2.913423776626587,-0.30004504323005676,-0.7527592778205872,2024-04-23T16:45:16.531
0.16885802149772644,0.8791264891624451,1.670109510421753,1.9314544200897217,-0.45823368430137634,-0.6462773084640503,2024-04-23T16:45:16.551
0.26049456000328064,0.8576891422271729,1.684351921081543,0.7611274123191833,-0.24439166486263275,-0.3350975811481476,2024-04-23T16:45:16.571
0.2954012155532837,0.813823401927948,1.6477426290512085,-0.29369980096817017,-0.22530920803546906,-0.009739483706653118,2024-04-23T16:45:16.591
0.23443950712680817,0.7746734619140625,1.7246595621109009,-1.4764915704727173,-0.42461687326431274,0.18620237708091736,2024-04-23T16:45:16.611
0.1090502217411995,0.7742534279823303,1.7284976243972778,-2.6407432556152344,-0.8069120049476624,0.22078272700309753,2024-04-23T16:45:16.631
0.05791112780570984,0.8614416122436523,1.642533540725708,-3.726125478744507,-0.9732274413108826,0.2788425385951996,2024-04-23T16:45:16.651
0.05492432042956352,1.0039665699005127,1.6491323709487915,-4.879480838775635,-1.174899935722351,0.4396649897098541,2024-04-23T16:45:16.671
-0.026959702372550964,1.1809766292572021,1.6417186260223389,-6.151680946350098,-1.2391738891601562,0.6303859353065491,2024-04-23T16:45:16.691
-0.014411396346986294,1.3557047843933105,1.635483980178833,-7.533762454986572,-1.3861277103424072,0.8598292469978333,2024-04-23T16:45:16.711
-0.08617033064365387,1.5938060283660889,1.6299948692321777,-8.967336654663086,-1.75167977809906,1.0305736064910889,2024-04-23T16:45:16.731
-0.294120728969574,1.953124761581421,1.4420442581176758,-10.456742286682129,-1.4056073427200317,1.1447584629058838,2024-04-23T16:45:16.751
-0.2908421754837036,2.323578119277954,0.9320165514945984,-11.626773834228516,-0.9139142632484436,1.3429783582687378,2024-04-23T16:45:16.771
-0.31153082847595215,2.487630605697632,-0.2464190125465393,-11.31382942199707,-1.0272130966186523,1.3935235738754272,2024-04-23T16:45:16.791
-0.5844679474830627,2.138021230697632,-1.300317406654358,-9.559771537780762,-2.0394341945648193,0.8940631151199341,2024-04-23T16:45:16.811
-0.802260160446167,1.7378323078155518,-2.3435373306274414,-6.922213554382324,-2.9094226360321045,0.26746073365211487,2024-04-23T16:45:16.831
-0.7108060717582703,1.4612503051757812,-2.93527889251709,-4.427980899810791,-3.009449005126953,0.04376932978630066,2024-04-23T16:45:16.851
-0.5156663060188293,1.3944417238235474,-2.872359275817871,-3.397761344909668,-2.0087106227874756,0.47357767820358276,2024-04-23T16:45:16.871
-0.5513381361961365,1.3063583374023438,-3.4495861530303955,-2.373042106628418,0.0764608308672905,0.7950806021690369,2024-04-23T16:45:16.891
-0.6522135734558105,1.07429838180542,-4.20693302154541,0.5836585164070129,0.2809244990348816,0.40002942085266113,2024-04-23T16:45:16.911
-0.5450534224510193,0.9042779207229614,-4.187042713165283,3.9990220069885254,0.26325857639312744,-0.008137807250022888,2024-04-23T16:45:16.931
-0.42285823822021484,1.125367283821106,-3.1311511993408203,5.941344738006592,0.9989063143730164,0.0489363931119442,2024-04-23T16:45:16.951
-0.4998587369918823,1.4235501289367676,-2.0688493251800537,6.459460258483887,1.954277515411377,0.23147770762443542,2024-04-23T16:45:16.971
-0.6842781901359558,1.6035445928573608,-1.5483839511871338,6.824934959411621,2.224231243133545,0.038023561239242554,2024-04-23T16:45:16.991
-0.496639609336853,1.7868812084197998,-1.5065360069274902,8.003448486328125,1.8891477584838867,-0.14609460532665253,2024-04-23T16:45:17.011
-0.38515210151672363,2.1436262130737305,-1.2067445516586304,9.43238353729248,1.6012439727783203,-0.18775470554828644,2024-04-23T16:45:17.031
-0.5064934492111206,2.5107369422912598,-0.5663974285125732,10.382657051086426,1.4880605936050415,-0.2968444526195526,2024-04-23T16:45:17.051
-0.8071934580802917,2.595026731491089,0.39948350191116333,10.485562324523926,0.7377558946609497,-0.9611135125160217,2024-04-23T16:45:17.071
-0.594980001449585,2.4575681686401367,1.0641889572143555,9.81032657623291,0.1928437501192093,-1.4360957145690918,2024-04-23T16:45:17.090
-0.263190358877182,2.1945512294769287,1.4874411821365356,8.558076858520508,0.1962546557188034,-1.4630417823791504,2024-04-23T16:45:17.110
-0.06053271144628525,1.9191707372665405,1.6259713172912598,7.168959617614746,0.6965330243110657,-1.1962532997131348,2024-04-23T16:45:17.130
0.03419715166091919,1.676825761795044,1.7224173545837402,5.895512580871582,0.7702661156654358,-0.9233168959617615,2024-04-23T16:45:17.150
-0.0044562555849552155,1.4364548921585083,1.866560697555542,4.6406073570251465,0.3070122003555298,-0.908109188079834,2024-04-23T16:45:17.170
0.10540821403265,1.2213475704193115,1.9247931241989136,3.318983554840088,-0.14087003469467163,-0.8860182166099548,2024-04-23T16:45:17.190
0.24866294860839844,1.1110985279083252,1.8870147466659546,1.8884094953536987,-0.001155852572992444,-0.6162674427032471,2024-04-23T16:45:17.210
0.3574497103691101,1.027571678161621,1.880457878112793,0.46076005697250366,0.1152258813381195,-0.1937582641839981,2024-04-23T16:45:17.230
0.3299582600593567,0.9309730529785156,1.8268632888793945,-0.7964255213737488,-0.13384148478507996,0.11418783664703369,2024-04-23T16:45:17.250
0.26914310455322266,0.8621014952659607,1.7864514589309692,-1.9533882141113281,-0.47565513849258423,0.3183329701423645,2024-04-23T16:45:17.270
0.18988165259361267,0.8521503210067749,1.7328978776931763,-3.1110787391662598,-0.560991108417511,0.47107458114624023,2024-04-23T16:45:17.290
0.12401850521564484,0.9281350374221802,1.7388529777526855,-4.290255069732666,-0.749079704284668,0.6117182374000549,2024-04-23T16:45:17.310
0.0991879478096962,1.061384916305542,1.715523362159729,-5.442922115325928,-1.001265525817871,0.7933719158172607,2024-04-23T16:45:17.330
-0.06993704289197922,1.169182538986206,1.7389744520187378,-6.735062599182129,-1.2769943475723267,0.7403348088264465,2024-04-23T16:45:17.350
-0.16771328449249268,1.385146141052246,1.6517584323883057,-8.178619384765625,-1.1295530796051025,0.6992717981338501,2024-04-23T16:45:17.370
-0.25897830724716187,1.5412776470184326,1.5260943174362183,-9.824260711669922,-0.3133017122745514,0.5930678844451904,2024-04-23T16:45:17.390
-0.1330028772354126,1.8571444749832153,1.225318431854248,-11.11202621459961,0.2713797986507416,0.7390791177749634,2024-04-23T16:45:17.410
-0.5247545838356018,2.181429624557495,0.7176511287689209,-11.723240852355957,0.1579999178647995,0.2671142518520355,2024-04-23T16:45:17.430
-0.9394781589508057,2.2782821655273438,-0.012341499328613281,-11.299433708190918,-0.9427862763404846,-0.9695839881896973,2024-04-23T16:45:17.450
-0.3587433695793152,2.202139139175415,-1.6433331966400146,-8.752930641174316,-2.3683526515960693,-1.25067937374115,2024-04-23T16:45:17.470
-0.04629012942314148,1.8712424039840698,-2.4127004146575928,-5.8437981605529785,-3.4636621475219727,-0.8235066533088684,2024-04-23T16:45:17.490
0.011572986841201782,1.6373374462127686,-2.342730760574341,-4.286828994750977,-3.3778841495513916,-0.0518951378762722,2024-04-23T16:45:17.510
-0.30249276757240295,1.5710538625717163,-2.3732943534851074,-3.808748483657837,-1.9318232536315918,0.4905095398426056,2024-04-23T16:45:17.530
-0.6989767551422119,1.4887733459472656,-2.6665496826171875,-3.1196348667144775,-1.292914628982544,0.37205344438552856,2024-04-23T16:45:17.550
-0.3530544936656952,1.216627836227417,-3.9926705360412598,-0.4603217840194702,-0.7159721255302429,0.4773532450199127,2024-04-23T16:45:17.570
-0.30240246653556824,0.9911417961120605,-4.367627143859863,2.9059557914733887,0.10984192788600922,0.5567511320114136,2024-04-23T16:45:17.590
-0.4161001741886139,1.060760498046875,-3.5209670066833496,5.197470188140869,0.9738621711730957,0.6281928420066833,2024-04-23T16:45:17.610
-0.4863157868385315,1.286513090133667,-2.580253839492798,6.478085517883301,1.6569877862930298,0.811647891998291,2024-04-23T16:45:17.630
-0.5137396454811096,1.692375898361206,-2.1660377979278564,7.67726469039917,2.0865097045898438,0.9794225096702576,2024-04-23T16:45:17.650
-0.6884206533432007,2.1604886054992676,-2.0571422576904297,9.362098693847656,2.5310726165771484,0.8635057210922241,2024-04-23T16:45:17.670
-0.8093891143798828,2.5635061264038086,-1.5201863050460815,11.19505500793457,1.9310966730117798,0.4238942861557007,2024-04-23T16:45:17.690
-0.8862379193305969,2.865914821624756,-0.41468381881713867,12.194141387939453,0.33579468727111816,-0.43209949135780334,2024-04-23T16:45:17.710
-0.7558586597442627,2.906006097793579,0.5256171822547913,11.900166511535645,-0.41840577125549316,-1.285815715789795,2024-04-23T16:45:17.729
-0.3484698235988617,2.7483606338500977,1.3688664436340332,10.043899536132812,0.4091945290565491,-1.3430181741714478,2024-04-23T16:45:17.749
-0.1946844756603241,2.3461356163024902,1.6489542722702026,8.177462577819824,1.0686999559402466,-1.118402361869812,2024-04-23T16:45:17.769
-0.18768666684627533,1.944171667098999,1.7416396141052246,6.809508800506592,0.8620409965515137,-1.1335835456848145,2024-04-23T16:45:17.789
0.013796312734484673,1.688706398010254,1.9371652603149414,5.379276752471924,0.32508739829063416,-1.0525349378585815,2024-04-23T16:45:17.809
0.15201565623283386,1.4235507249832153,2.057790756225586,3.8309285640716553,-0.32298868894577026,-0.9399539232254028,2024-04-23T16:45:17.829
0.2547304928302765,1.2518706321716309,1.8671694993972778,2.4362056255340576,-0.18093381822109222,-0.673719584941864,2024-04-23T16:45:17.849
0.3263186812400818,1.1384119987487793,1.783726692199707,1.2399718761444092,-0.013439648784697056,-0.32066676020622253,2024-04-23T16:45:17.869
0.3665841817855835,1.0640321969985962,1.7439088821411133,0.16619490087032318,-0.14920446276664734,0.03481389954686165,2024-04-23T16:45:17.889
0.3600701689720154,0.9968383312225342,1.7701008319854736,-0.9488144516944885,-0.4246702790260315,0.3526661694049835,2024-04-23T16:45:17.909
0.3231689929962158,0.9482519626617432,1.76548433303833,-2.1430065631866455,-0.598339855670929,0.622699499130249,2024-04-23T16:45:17.929
0.2069641500711441,0.984762966632843,1.749556064605713,-3.3680806159973145,-0.7896642088890076,0.7896091341972351,2024-04-23T16:45:17.949
0.1435890942811966,1.085216999053955,1.6340653896331787,-4.512812614440918,-0.8963952660560608,0.9173479080200195,2024-04-23T16:45:17.969
0.0645102858543396,1.1951799392700195,1.495845079421997,-5.559778690338135,-0.9963196516036987,0.9809554219245911,2024-04-23T16:45:17.989
-0.056745048612356186,1.3283259868621826,1.4807509183883667,-6.761740207672119,-1.2056348323822021,0.9663093686103821,2024-04-23T16:45:18.009
-0.08805659413337708,1.5173977613449097,1.2133738994598389,-7.807284832000732,-1.0893207788467407,1.1038620471954346,2024-04-23T16:45:18.029
-0.19018544256687164,1.6559851169586182,1.0190221071243286,-8.914599418640137,-0.8498534560203552,1.1748665571212769,2024-04-23T16:45:18.049
-0.37460780143737793,1.8022067546844482,0.7360581159591675,-9.85466480255127,-0.9432574510574341,1.0098357200622559,2024-04-23T16:45:18.069
-0.4359171390533447,1.926749587059021,-0.020678460597991943,-9.79949951171875,-0.958998441696167,0.897059440612793,2024-04-23T16:45:18.089
-0.5862609148025513,1.8077659606933594,-0.2932453155517578,-9.662395477294922,-0.9985539317131042,0.6151071190834045,2024-04-23T16:45:18.109
-0.6115477085113525,1.7768031358718872,-0.7267501950263977,-9.438178062438965,-1.052713394165039,0.334110826253891,2024-04-23T16:45:18.129
-0.4033691883087158,1.6675572395324707,-1.9003782272338867,-7.7218828201293945,-1.399684190750122,0.22080668807029724,2024-04-23T16:45:18.149
-0.26283562183380127,1.3476150035858154,-2.750105381011963,-4.953242301940918,-2.2594544887542725,0.25935593247413635,2024-04-23T16:45:18.169
-0.3257037103176117,1.0983941555023193,-2.6811604499816895,-3.150564432144165,-2.3433890342712402,0.3177502751350403,2024-04-23T16:45:18.189
-0.20948123931884766,1.008216142654419,-2.6415042877197266,-2.459562063217163,-1.1995028257369995,0.777216374874115,2024-04-23T16:45:18.209
-0.20448097586631775,0.7913835048675537,-3.058610677719116,-1.3481130599975586,0.08801297843456268,1.1463327407836914,2024-04-23T16:45:18.229
-0.445355623960495,0.556580662727356,-3.5024919509887695,1.0172001123428345,0.26885366439819336,0.8879085779190063,2024-04-23T16:45:18.249
-0.543685793876648,0.5791170001029968,-3.459235191345215,3.7903687953948975,0.1780603975057602,0.45722532272338867,2024-04-23T16:45:18.269
-0.5125569105148315,0.8077202439308167,-2.613008975982666,5.3103108406066895,0.6229479312896729,0.27513059973716736,2024-04-23T16:45:18.289
-0.5193610191345215,1.0044324398040771,-1.9094479084014893,5.864410400390625,1.49895179271698,0.2389683574438095,2024-04-23T16:45:18.309
-0.607264518737793,1.2107540369033813,-1.5299873352050781,6.427023410797119,1.8941289186477661,0.0027148255612701178,2024-04-23T16:45:18.329
-0.4967834949493408,1.4121932983398438,-1.285665512084961,7.306455612182617,1.8693633079528809,-0.23213525116443634,2024-04-23T16:45:18.348
-0.3794146776199341,1.626547932624817,-0.9729291200637817,8.489749908447266,1.3226757049560547,-0.3482693135738373,2024-04-23T16:45:18.368
-0.3825244903564453,1.8669548034667969,-0.31693828105926514,9.00338363647461,0.8489041328430176,-0.4319029450416565,2024-04-23T16:45:18.388
-0.5193766355514526,1.919478178024292,0.24622434377670288,8.895272254943848,0.6685789227485657,-0.7632286548614502,2024-04-23T16:45:18.408
-0.5521679520606995,1.8541629314422607,0.7613726258277893,8.3065824508667,0.5505258440971375,-1.274173378944397,2024-04-23T16:45:18.428
-0.35756152868270874,1.7645052671432495,1.1177978515625,7.359050750732422,0.7555294036865234,-1.5112446546554565,2024-04-23T16:45:18.448
-0.15689998865127563,1.6128249168395996,1.3725037574768066,6.348784446716309,0.7312209010124207,-1.500725507736206,2024-04-23T16:45:18.468
0.0025923638604581356,1.4591448307037354,1.5929701328277588,5.252102851867676,0.5514801740646362,-1.3383092880249023,2024-04-23T16:45:18.488
0.09098093211650848,1.318405032157898,1.6914989948272705,4.154407978057861,0.3946540951728821,-1.1287057399749756,2024-04-23T16:45:18.508
0.10793065279722214,1.184794545173645,1.811387538909912,2.991231679916382,0.13074183464050293,-0.9709041118621826,2024-04-23T16:45:18.528
0.18260006606578827,1.0749635696411133,1.9346919059753418,1.6394060850143433,-0.14067725837230682,-0.7309314608573914,2024-04-23T16:45:18.548
0.2939709424972534,0.9889379143714905,1.9003708362579346,0.2806725800037384,-0.05916746333241463,-0.3144117593765259,2024-04-23T16:45:18.568
0.2914103865623474,0.9078767895698547,1.891111135482788,-1.0060882568359375,-0.11266113817691803,0.0694136917591095,2024-04-23T16:45:18.588
0.22627070546150208,0.8591451048851013,1.8133325576782227,-2.070467472076416,-0.48192986845970154,0.3355313539505005,2024-04-23T16:45:18.608
0.11824249476194382,0.849708080291748,1.7502717971801758,-3.008021831512451,-0.9433636665344238,0.4583965837955475,2024-04-23T16:45:18.628
0.04556417837738991,0.9037712812423706,1.6770961284637451,-3.8740334510803223,-1.3717659711837769,0.5309434533119202,2024-04-23T16:45:18.648
-0.004732036031782627,0.9922283887863159,1.6141095161437988,-4.695617198944092,-1.8087841272354126,0.5889807343482971,2024-04-23T16:45:18.668
-0.08174915611743927,1.1345303058624268,1.5621423721313477,-5.66090726852417,-1.9691295623779297,0.6718012690544128,2024-04-23T16:45:18.688
-0.06004262715578079,1.3237192630767822,1.4738454818725586,-6.873985290527344,-1.7276650667190552,0.9500811100006104,2024-04-23T16:45:18.708
-0.10165513306856155,1.5349843502044678,1.266245722770691,-8.045592308044434,-1.702354073524475,1.3011711835861206,2024-04-23T16:45:18.728
-0.5028475522994995,1.7347314357757568,0.8337298035621643,-9.031476020812988,-1.288804531097412,1.1663845777511597,2024-04-23T16:45:18.748
-0.5641931295394897,1.7557284832000732,0.16444307565689087,-9.230363845825195,-1.1451306343078613,0.8763299584388733,2024-04-23T16:45:18.768
-0.5587857961654663,1.6993670463562012,-0.16223710775375366,-9.21020793914795,-1.561730146408081,0.6881810426712036,2024-04-23T16:45:18.788
-0.7515960335731506,1.8167213201522827,-0.6163720488548279,-9.527958869934082,-1.1119859218597412,0.3209679126739502,2024-04-23T16:45:18.808
-0.4483557343482971,1.9280136823654175,-1.9033451080322266,-8.330011367797852,-1.0410065650939941,0.24411705136299133,2024-04-23T16:45:18.828
-0.27637070417404175,1.7433191537857056,-3.1028525829315186,-5.65499210357666,-1.6410318613052368,0.23102891445159912,2024-04-23T16:45:18.848
-0.2366698682308197,1.4063621759414673,-3.66501522064209,-2.783353567123413,-1.9187220335006714,0.2587178349494934,2024-04-23T16:45:18.868
-0.04153016209602356,1.0882980823516846,-3.6321921348571777,-0.8029274940490723,-1.167487621307373,0.7383451461791992,2024-04-23T16:45:18.888
-0.14574003219604492,0.7376953959465027,-3.4682862758636475,0.6270621418952942,0.4067220091819763,1.1422641277313232,2024-04-23T16:45:18.908
-0.39351704716682434,0.5183604955673218,-3.3714301586151123,2.5880320072174072,1.1438379287719727,1.1178176403045654,2024-04-23T16:45:18.927
-0.5490416288375854,0.550032913684845,-2.8624391555786133,4.510532379150391,1.1872388124465942,0.868080735206604,2024-04-23T16:45:18.947
-0.6051422357559204,0.7558832168579102,-2.058429479598999,5.524406433105469,1.0527859926223755,0.5610573887825012,2024-04-23T16:45:18.967
-0.6420201659202576,1.0167022943496704,-1.5354926586151123,6.017075538635254,1.076238751411438,0.1776445358991623,2024-04-23T16:45:18.987
-0.5956008434295654,1.1722997426986694,-1.3545846939086914,6.659049987792969,1.1680048704147339,-0.21176445484161377,2024-04-23T16:45:19.007
-0.4499751329421997,1.4217880964279175,-1.0649855136871338,7.326503276824951,1.2815972566604614,-0.3311600983142853,2024-04-23T16:45:19.027
-0.3979392945766449,1.643682599067688,-0.7787666916847229,8.00532054901123,1.3347102403640747,-0.348630428314209,2024-04-23T16:45:19.047
-0.45937618613243103,1.88499915599823,-0.42195433378219604,8.651981353759766,1.0242503881454468,-0.5028674602508545,2024-04-23T16:45:19.067
-0.5174094438552856,1.9676722288131714,0.08156239986419678,8.987553596496582,0.45460623502731323,-0.9222138524055481,2024-04-23T16:45:19.087
-0.5004052519798279,1.9165935516357422,0.6770294904708862,8.461813926696777,0.49571582674980164,-1.381597638130188,2024-04-23T16:45:19.107
-0.3185318410396576,1.797731637954712,1.0608298778533936,7.308948993682861,1.4242712259292603,-1.4247320890426636,2024-04-23T16:45:19.127
-0.15350745618343353,1.615199089050293,1.3030681610107422,6.282554626464844,1.6266469955444336,-1.2527885437011719,2024-04-23T16:45:19.147
-0.07775042951107025,1.4065959453582764,1.548348307609558,5.374332904815674,0.7884559631347656,-1.203622579574585,2024-04-23T16:45:19.167
0.03539815545082092,1.2301455736160278,1.6541244983673096,4.413625240325928,-0.021936142817139626,-1.1693307161331177,2024-04-23T16:45:19.187
0.19104443490505219,1.1094812154769897,1.6859393119812012,3.2319107055664062,-0.04326489567756653,-0.891588032245636,2024-04-23T16:45:19.207
0.29963353276252747,1.0136840343475342,1.783569574356079,1.7944042682647705,0.2454906404018402,-0.4054490029811859,2024-04-23T16:45:19.227
0.2763274312019348,0.9099915623664856,1.8180649280548096,0.47515419125556946,0.023127231746912003,-0.05165446549654007,2024-04-23T16:45:19.247
0.2417183220386505,0.8615624904632568,1.702884554862976,-0.5722099542617798,-0.3950517773628235,0.1968429535627365,2024-04-23T16:45:19.266
0.24235866963863373,0.8681235313415527,1.5612270832061768,-1.4133212566375732,-0.6975060701370239,0.4697677195072174,2024-04-23T16:45:19.287
0.205014169216156,0.8679032325744629,1.4756171703338623,-2.1585402488708496,-0.9100407958030701,0.7102351784706116,2024-04-23T16:45:19.307
0.1327364444732666,0.9045460224151611,1.4568698406219482,-2.9033007621765137,-1.1102925539016724,0.8778507709503174,2024-04-23T16:45:19.327
0.07913058996200562,0.9496464133262634,1.4772136211395264,-3.7644033432006836,-1.241963267326355,1.0006183385849,2024-04-23T16:45:19.347
0.050193194299936295,1.0566117763519287,1.4439010620117188,-4.672934055328369,-1.361362338066101,1.1263511180877686,2024-04-23T16:45:19.367
-0.04997135326266289,1.2023496627807617,1.4234979152679443,-5.610378265380859,-1.7086964845657349,1.1851718425750732,2024-04-23T16:45:19.386
-0.1137886643409729,1.3827400207519531,1.3259994983673096,-6.684337139129639,-1.6639360189437866,1.3383326530456543,2024-04-23T16:45:19.406
-0.1747170388698578,1.5508408546447754,1.123270034790039,-7.848180770874023,-1.1591566801071167,1.5351485013961792,2024-04-23T16:45:19.426
-0.29687047004699707,1.6631383895874023,0.8327000141143799,-8.802702903747559,-0.8666682243347168,1.539562702178955,2024-04-23T16:45:19.446
-0.556941032409668,1.7479631900787354,0.42426198720932007,-9.28426742553711,-0.6969043016433716,1.0658377408981323,2024-04-23T16:45:19.466
-0.5884023308753967,1.8513996601104736,0.03342103958129883,-9.445328712463379,-0.673920750617981,0.5775362253189087,2024-04-23T16:45:19.486
-0.468040406703949,1.9676337242126465,-0.5480355620384216,-9.275493621826172,-0.4812944531440735,0.5163434743881226,2024-04-23T16:45:19.506
-0.5520087480545044,1.6425137519836426,-1.4044780731201172,-8.401147842407227,0.3036704957485199,0.20797444880008698,2024-04-23T16:45:19.527
-0.3969443738460541,1.3567407131195068,-2.0335404872894287,-6.727196216583252,0.17691467702388763,-0.16945484280586243,2024-04-23T16:45:19.546
-0.15847148001194,1.3696379661560059,-1.9809825420379639,-5.704351902008057,-0.9277525544166565,-0.21302148699760437,2024-04-23T16:45:19.566
0.05590902268886566,1.5609383583068848,-2.3223066329956055,-5.559057712554932,-0.9934309124946594,0.3266766369342804,2024-04-23T16:45:19.587
0.1312374323606491,1.4486415386199951,-3.9352669715881348,-2.9417171478271484,-1.0551555156707764,0.7658869028091431,2024-04-23T16:45:19.606
-0.13891875743865967,1.0301880836486816,-4.816507816314697,1.238871455192566,-1.021383285522461,0.6345582604408264,2024-04-23T16:45:19.626
-0.1841939091682434,0.8473771810531616,-4.189869403839111,4.548606872558594,-0.37979209423065186,0.6163201332092285,2024-04-23T16:45:19.646
-0.46564871072769165,0.9621251225471497,-2.725872755050659,5.790654182434082,0.5704706311225891,0.5291284322738647,2024-04-23T16:45:19.666
-0.7027262449264526,1.1014643907546997,-1.7359269857406616,5.945399761199951,1.166615605354309,0.22995276749134064,2024-04-23T16:45:19.686
-0.5135718584060669,1.235393762588501,-1.5834438800811768,6.477043628692627,1.708720088005066,0.2017522156238556,2024-04-23T16:45:19.706
-0.40916603803634644,1.4988198280334473,-1.5223965644836426,7.808216094970703,1.8024314641952515,0.24709603190422058,2024-04-23T16:45:19.726
-0.4796002507209778,1.7951390743255615,-0.9462782144546509,9.08104419708252,1.0099453926086426,-0.00943002663552761,2024-04-23T16:45:19.746
-0.5512188673019409,1.9354294538497925,-0.15668314695358276,9.60302448272705,-0.036978498101234436,-0.5863048434257507,2024-04-23T16:45:19.766
-0.45579439401626587,1.9236880540847778,0.49490123987197876,9.196181297302246,-0.31372737884521484,-1.0881335735321045,2024-04-23T16:45:19.786
-0.34799110889434814,1.8014791011810303,0.9766790866851807,7.958649635314941,0.7204166054725647,-1.2718688249588013,2024-04-23T16:45:19.806
-0.23987606167793274,1.5933936834335327,1.3130836486816406,6.547896862030029,1.4433213472366333,-1.2416858673095703,2024-04-23T16:45:19.826
-0.1872669905424118,1.3950989246368408,1.3149703741073608,5.653847694396973,1.394680142402649,-1.2729824781417847,2024-04-23T16:45:19.846
-0.12533436715602875,1.2509839534759521,1.3859820365905762,5.015740394592285,0.7089092135429382,-1.3805418014526367,2024-04-23T16:45:19.866
0.010662686079740524,1.141086459159851,1.4288122653961182,4.3816423416137695,0.10704547166824341,-1.4081976413726807,2024-04-23T16:45:19.886
0.15428341925144196,1.0562642812728882,1.5014091730117798,3.5316381454467773,-0.08189774304628372,-1.2315943241119385,2024-04-23T16:45:19.906
0.26816123723983765,0.9783145785331726,1.6125800609588623,2.3604941368103027,0.029892437160015106,-0.8614269495010376,2024-04-23T16:45:19.926
0.3004279136657715,0.9026382565498352,1.6621426343917847,1.0992792844772339,0.015030667185783386,-0.45645976066589355,2024-04-23T16:45:19.946
0.3132542371749878,0.8500300645828247,1.6024949550628662,-0.033485688269138336,-0.06764087826013565,-0.05939418822526932,2024-04-23T16:45:19.966
0.28287458419799805,0.8144820928573608,1.5217225551605225,-1.0314576625823975,-0.1361583173274994,0.2863403260707855,2024-04-23T16:45:19.986
0.24640363454818726,0.7802145481109619,1.4088027477264404,-1.7754241228103638,-0.37947118282318115,0.5565920472145081,2024-04-23T16:45:20.006
0.2060447633266449,0.7899733781814575,1.3502312898635864,-2.381336212158203,-0.7471572160720825,0.796745240688324,2024-04-23T16:45:20.026
0.07608012855052948,0.8152517080307007,1.3742592334747314,-3.0578927993774414,-1.0536651611328125,0.9013752937316895,2024-04-23T16:45:20.046
-0.03519915044307709,0.8585877418518066,1.4291191101074219,-3.8718464374542236,-1.3250477313995361,0.9044009447097778,2024-04-23T16:45:20.065
-0.06251747906208038,0.9463968276977539,1.4124233722686768,-4.746872425079346,-1.507412314414978,0.9683420062065125,2024-04-23T16:45:20.086
-0.09499014914035797,1.0653879642486572,1.3890659809112549,-5.81744909286499,-1.4795140027999878,1.1204067468643188,2024-04-23T16:45:20.105
-0.2260337471961975,1.1878273487091064,1.3743445873260498,-7.179574489593506,-1.2669140100479126,1.174115538597107,2024-04-23T16:45:20.125
-0.36860984563827515,1.353629231452942,1.0949336290359497,-8.399455070495605,-1.0108888149261475,1.098006010055542,2024-04-23T16:45:20.145
-0.5184937715530396,1.5499274730682373,0.5801527500152588,-9.146862983703613,-0.8613820672035217,0.8172394037246704,2024-04-23T16:45:20.165
-0.5611783266067505,1.622304916381836,-0.15797728300094604,-9.036714553833008,-0.6124382019042969,0.4163382649421692,2024-04-23T16:45:20.185
-0.5419842600822449,1.5784717798233032,-0.4570491909980774,-8.86801815032959,-0.619575023651123,-0.025762470439076424,2024-04-23T16:45:20.205
-0.31969016790390015,1.622280478477478,-0.8118525743484497,-8.649070739746094,-0.8591117858886719,-0.12114701420068741,2024-04-23T16:45:20.225
-0.14669181406497955,1.6784801483154297,-1.0847673416137695,-8.345198631286621,-1.54232656955719,0.08781442046165466,2024-04-23T16:45:20.245
-0.20968954265117645,1.7286691665649414,-1.9623777866363525,-7.179118633270264,-1.8744984865188599,0.2923572063446045,2024-04-23T16:45:20.265
-0.25897228717803955,1.550696611404419,-3.228940486907959,-4.450152397155762,-2.029755115509033,0.37858763337135315,2024-04-23T16:45:20.285
-0.26072579622268677,1.236659049987793,-3.738875150680542,-1.3732216358184814,-1.945579171180725,0.4213106632232666,2024-04-23T16:45:20.305
-0.23831188678741455,0.9970346093177795,-3.6107735633850098,1.1070600748062134,-1.1298530101776123,0.5763034820556641,2024-04-23T16:45:20.325
-0.3025842308998108,0.7775486707687378,-3.104499578475952,2.836848258972168,0.07653488218784332,0.7407078146934509,2024-04-23T16:45:20.345
-0.4040026366710663,0.6987594962120056,-2.4517040252685547,4.162219047546387,0.750775933265686,0.7872090339660645,2024-04-23T16:45:20.365
-0.5091623067855835,0.7762232422828674,-1.7739191055297852,4.997531414031982,0.9733055830001831,0.658359169960022,2024-04-23T16:45:20.385
-0.539507269859314,0.8905879855155945,-1.3671724796295166,5.585879802703857,1.0286182165145874,0.4013992249965668,2024-04-23T16:45:20.405
-0.5234708786010742,1.0441148281097412,-1.1938331127166748,6.189769744873047,1.1687806844711304,0.08963625133037567,2024-04-23T16:45:20.425
-0.456615149974823,1.1976597309112549,-1.0122840404510498,6.991544723510742,0.9198522567749023,-0.20213642716407776,2024-04-23T16:45:20.445
-0.41678112745285034,1.340549349784851,-0.6448372006416321,7.593719959259033,0.5810613632202148,-0.47979357838630676,2024-04-23T16:45:20.465
-0.42122387886047363,1.4387105703353882,-0.27240025997161865,7.861438274383545,0.4661719799041748,-0.7716755867004395,2024-04-23T16:45:20.485
-0.44515958428382874,1.5018911361694336,0.04546898603439331,7.886900901794434,0.5571703910827637,-1.1123532056808472,2024-04-23T16:45:20.505
-0.4030957818031311,1.5078932046890259,0.33131128549575806,7.8159379959106445,0.5464581847190857,-1.4438666105270386,2024-04-23T16:45:20.525
-0.3081648349761963,1.5316963195800781,0.6520521640777588,7.519355773925781,0.5395166873931885,-1.6974338293075562,2024-04-23T16:45:20.545
-0.2269994467496872,1.489417552947998,1.0009586811065674,6.861632823944092,0.4644087553024292,-1.8942173719406128,2024-04-23T16:45:20.565
-0.08907420188188553,1.3978979587554932,1.2674025297164917,5.877128601074219,0.4215317666530609,-1.9478060007095337,2024-04-23T16:45:20.584
0.09957647323608398,1.2614741325378418,1.4181687831878662,4.712133407592773,0.6004486083984375,-1.7533998489379883,2024-04-23T16:45:20.605
0.23661385476589203,1.0990333557128906,1.508415699005127,3.6006600856781006,0.5050294399261475,-1.455018401145935,2024-04-23T16:45:20.625
0.3276704251766205,0.9950330853462219,1.550561547279358,2.51983642578125,0.33460983633995056,-1.0704002380371094,2024-04-23T16:45:20.645
0.3644253611564636,0.8878489136695862,1.5917389392852783,1.417047381401062,0.13090357184410095,-0.6798673272132874,2024-04-23T16:45:20.664
0.39742061495780945,0.8478820323944092,1.513315200805664,0.45308536291122437,0.019870271906256676,-0.24158449470996857,2024-04-23T16:45:20.684
0.3722822666168213,0.810896635055542,1.4461479187011719,-0.41008448600769043,0.0007755412952974439,0.15344616770744324,2024-04-23T16:45:20.704
0.3398478627204895,0.7617018222808838,1.4316039085388184,-1.2213351726531982,-0.12189485132694244,0.4735376536846161,2024-04-23T16:45:20.724
0.2737315893173218,0.7465984225273132,1.4402848482131958,-2.012934684753418,-0.4442780315876007,0.6777596473693848,2024-04-23T16:45:20.744
0.1834527552127838,0.7733341455459595,1.4259699583053589,-2.797043561935425,-0.7129930257797241,0.7987024188041687,2024-04-23T16:45:20.764
0.07977502793073654,0.8168870806694031,1.4504536390304565,-3.6604912281036377,-0.9277873039245605,0.8140280842781067,2024-04-23T16:45:20.784
-0.008604280650615692,0.9470869302749634,1.4544106721878052,-4.662514686584473,-1.0341726541519165,0.823645293712616,2024-04-23T16:45:20.804
0.06116514652967453,1.0792293548583984,1.360882043838501,-5.638756275177002,-1.1458319425582886,1.0420551300048828,2024-04-23T16:45:20.824
0.03729808330535889,1.2101848125457764,1.2750144004821777,-6.658377170562744,-1.4297045469284058,1.354472041130066,2024-04-23T16:45:20.844
-0.19789685308933258,1.3345458507537842,0.9660676121711731,-7.54201078414917,-1.343032717704773,1.4967739582061768,2024-04-23T16:45:20.864
-0.44328078627586365,1.4571775197982788,0.5362733006477356,-8.09557056427002,-1.0735665559768677,1.310057282447815,2024-04-23T16:45:20.884
-0.43947693705558777,1.5409386157989502,-0.01849222183227539,-8.105323791503906,-1.123985767364502,1.099563479423523,2024-04-23T16:45:20.904
-0.3681865930557251,1.4312852621078491,-0.7335801124572754,-7.461938381195068,-1.4082387685775757,1.0470870733261108,2024-04-23T16:45:20.924
-0.4578765034675598,1.2105768918991089,-1.3527253866195679,-6.521986961364746,-1.4134272336959839,0.9509779214859009,2024-04-23T16:45:20.944
-0.5584722757339478,1.0423057079315186,-1.875046730041504,-5.459850788116455,-1.0428411960601807,0.8429071307182312,2024-04-23T16:45:20.964
-0.543602705001831,0.8888458013534546,-2.1974995136260986,-4.573553562164307,-0.493405818939209,0.7706297039985657,2024-04-23T16:45:20.984
-0.3618459403514862,0.6439213752746582,-2.6394400596618652,-3.4498207569122314,-0.04933018237352371,0.9315235018730164,2024-04-23T16:45:21.004
-0.4191640317440033,0.3735194504261017,-2.914595603942871,-2.088935375213623,0.29789164662361145,0.8352313041687012,2024-04-23T16:45:21.024
-0.5130953788757324,0.21242305636405945,-3.220762252807617,0.11870328336954117,0.05170506238937378,0.3533877432346344,2024-04-23T16:45:21.044
-0.41970518231391907,0.14932957291603088,-3.056417942047119,2.3682899475097656,-0.16529878973960876,-0.04076758027076721,2024-04-23T16:45:21.064
-0.28336793184280396,0.1978279948234558,-2.384227752685547,3.794753074645996,0.06491687148809433,-0.1456548422574997,2024-04-23T16:45:21.084
-0.3058249056339264,0.31320592761039734,-1.6564525365829468,4.293045520782471,0.6636432409286499,-0.17490436136722565,2024-04-23T16:45:21.104
-0.35094448924064636,0.3835899233818054,-1.1338210105895996,4.31817102432251,1.0487618446350098,-0.25436291098594666,2024-04-23T16:45:21.124
-0.3453677296638489,0.49970385432243347,-0.9436823129653931,4.486784934997559,1.0558351278305054,-0.3894767761230469,2024-04-23T16:45:21.144
-0.33634161949157715,0.6665739417076111,-0.8867762088775635,4.920841693878174,0.8376860022544861,-0.5961929559707642,2024-04-23T16:45:21.164
-0.32436567544937134,0.8434504866600037,-0.8468237519264221,5.610796928405762,0.7097315192222595,-0.8643855452537537,2024-04-23T16:45:21.184
-0.27942001819610596,1.0434556007385254,-0.5921652913093567,6.239457130432129,0.6208483576774597,-1.0875766277313232,2024-04-23T16:45:21.203
-0.2988379895687103,1.166142225265503,-0.1557636260986328,6.529247283935547,0.572928249835968,-1.361571192741394,2024-04-23T16:45:21.223
-0.25392723083496094,1.2096432447433472,0.35174089670181274,6.312134742736816,0.6187145113945007,-1.5742202997207642,2024-04-23T16:45:21.243
-0.15527455508708954,1.1870720386505127,0.7245337963104248,5.763281345367432,0.8224303722381592,-1.6387749910354614,2024-04-23T16:45:21.263
-0.047431811690330505,1.16007399559021,0.971017599105835,5.073850631713867,1.0356197357177734,-1.5706286430358887,2024-04-23T16:45:21.283
0.06469148397445679,1.0986833572387695,1.1486625671386719,4.315772533416748,1.0413357019424438,-1.4331861734390259,2024-04-23T16:45:21.303
0.19379325211048126,1.0023736953735352,1.2866814136505127,3.568199872970581,0.688108503818512,-1.2393120527267456,2024-04-23T16:45:21.323
0.27660995721817017,0.9211485981941223,1.3447952270507812,2.870652675628662,0.3354940414428711,-0.9790216088294983,2024-04-23T16:45:21.343
0.33554551005363464,0.8619192242622375,1.445168137550354,2.0129940509796143,0.16719950735569,-0.6499444842338562,2024-04-23T16:45:21.363
0.3129255771636963,0.8151981830596924,1.5486773252487183,1.0200916528701782,-0.03899075835943222,-0.3527234196662903,2024-04-23T16:45:21.383
0.30807214975357056,0.7895200848579407,1.5703113079071045,0.0032934360206127167,-0.1958865225315094,-0.041755180805921555,2024-04-23T16:45:21.403
0.3329164683818817,0.7650006413459778,1.553106427192688,-1.0072346925735474,-0.32351890206336975,0.3176765441894531,2024-04-23T16:45:21.423
0.3193221986293793,0.7448658347129822,1.524629831314087,-1.973070502281189,-0.49208950996398926,0.6790752410888672,2024-04-23T16:45:21.443
0.16158154606819153,0.7630432844161987,1.5002658367156982,-2.897993803024292,-0.6421074867248535,0.8469233512878418,2024-04-23T16:45:21.463
0.05864815041422844,0.796347439289093,1.4614535570144653,-3.7374749183654785,-0.9376451373100281,0.8982944488525391,2024-04-23T16:45:21.483
0.022330358624458313,0.8676862716674805,1.4342293739318848,-4.530320644378662,-1.3707680702209473,0.9687981009483337,2024-04-23T16:45:21.503
-0.021174445748329163,0.9486826658248901,1.408751368522644,-5.486886978149414,-1.55503249168396,1.1204955577850342,2024-04-23T16:45:21.523
-0.042705826461315155,1.1044138669967651,1.2681890726089478,-6.5292181968688965,-1.5643174648284912,1.4064726829528809,2024-04-23T16:45:21.543
-0.10298679769039154,1.2790172100067139,0.8650460243225098,-7.159244060516357,-1.453800082206726,1.6673059463500977,2024-04-23T16:45:21.563
-0.07660725712776184,1.285659909248352,0.4989354610443115,-7.431402206420898,-1.511975646018982,2.049837350845337,2024-04-23T16:45:21.583
-0.2906462550163269,1.1720094680786133,0.09931933879852295,-7.676629543304443,-0.8948870301246643,2.2356302738189697,2024-04-23T16:45:21.603
-0.534692645072937,1.1343213319778442,-0.21319478750228882,-8.109477996826172,-0.1681092530488968,1.9411137104034424,2024-04-23T16:45:21.623
-0.6329597234725952,1.2790617942810059,-0.9080144166946411,-8.146717071533203,0.3632509708404541,1.4251688718795776,2024-04-23T16:45:21.643
-0.6219547390937805,1.3447165489196777,-2.105492353439331,-6.641308307647705,-0.08031430840492249,0.7689366340637207,2024-04-23T16:45:21.663
-0.5305300951004028,1.1316282749176025,-3.084160327911377,-4.001368522644043,-1.2785605192184448,0.22347812354564667,2024-04-23T16:45:21.683
-0.2970755398273468,0.9141233563423157,-3.353450298309326,-2.021150588989258,-1.4481017589569092,0.24226431548595428,2024-04-23T16:45:21.703
-0.21077293157577515,0.7442963123321533,-3.6339316368103027,-0.30925244092941284,-0.2966131865978241,0.5100269913673401,2024-04-23T16:45:21.723
-0.28055059909820557,0.5525233745574951,-3.675377607345581,1.9340096712112427,0.37914448976516724,0.5609397888183594,2024-04-23T16:45:21.743
-0.4480106234550476,0.5157870650291443,-3.2191874980926514,4.192202091217041,0.6308331489562988,0.38399559259414673,2024-04-23T16:45:21.763
-0.5667007565498352,0.6504478454589844,-2.267752170562744,5.392791271209717,0.9579946398735046,0.08845847100019455,2024-04-23T16:45:21.783
-0.5183364748954773,0.7863627672195435,-1.4945802688598633,5.783479690551758,1.1731712818145752,-0.11490069329738617,2024-04-23T16:45:21.803
-0.49614474177360535,0.9530820846557617,-1.074421763420105,6.07850456237793,1.001366376876831,-0.38096362352371216,2024-04-23T16:45:21.822
-0.36166781187057495,1.0824471712112427,-0.8709632754325867,6.601109027862549,0.8652918338775635,-0.5940545797348022,2024-04-23T16:45:21.842
-0.28872865438461304,1.2745521068572998,-0.548786461353302,7.212398529052734,0.6793711185455322,-0.749488353729248,2024-04-23T16:45:21.862
-0.2220749706029892,1.4388540983200073,-0.1091693639755249,7.596109390258789,0.47801098227500916,-0.8718866109848022,2024-04-23T16:45:21.882
-0.25333380699157715,1.4720512628555298,0.44075262546539307,7.456813812255859,0.3232179582118988,-1.1684554815292358,2024-04-23T16:45:21.902
-0.14708270132541656,1.4355731010437012,0.8988683223724365,6.793990612030029,0.30791833996772766,-1.3475724458694458,2024-04-23T16:45:21.923
0.00430673360824585,1.3482534885406494,1.200319528579712,5.76818323135376,0.486896812915802,-1.2828353643417358,2024-04-23T16:45:21.942
0.10645520687103271,1.2187657356262207,1.2656049728393555,4.84617280960083,0.6821272969245911,-1.0561681985855103,2024-04-23T16:45:21.962
0.15222284197807312,1.112786054611206,1.311112403869629,4.167332172393799,0.5478419661521912,-0.8127264976501465,2024-04-23T16:45:21.982
0.1512291133403778,1.0253667831420898,1.4305052757263184,3.477027654647827,0.22872424125671387,-0.6377962231636047,2024-04-23T16:45:22.002
0.12283395230770111,0.9366083741188049,1.6044714450836182,2.480228900909424,0.0938211977481842,-0.534911036491394,2024-04-23T16:45:22.022
0.09014051407575607,0.8555425405502319,1.7345120906829834,1.2066121101379395,0.15406909584999084,-0.4946763217449188,2024-04-23T16:45:22.042
0.1757894903421402,0.8311342597007751,1.7001008987426758,0.00471369968727231,0.2232082188129425,-0.3064611256122589,2024-04-23T16:45:22.062
0.262102335691452,0.8066150546073914,1.614978313446045,-0.9924824237823486,0.12427009642124176,0.01524052768945694,2024-04-23T16:45:22.082
0.23428204655647278,0.785048246383667,1.5371840000152588,-1.8534959554672241,0.01252608560025692,0.2785434126853943,2024-04-23T16:45:22.102
0.1022089421749115,0.767529308795929,1.4953241348266602,-2.644352674484253,-0.18235790729522705,0.3462175726890564,2024-04-23T16:45:22.122
0.04749980941414833,0.7942696213722229,1.4811707735061646,-3.4072017669677734,-0.540420413017273,0.3706348240375519,2024-04-23T16:45:22.142
0.04002240300178528,0.8639099597930908,1.4984561204910278,-4.289262771606445,-0.9163826107978821,0.4752844274044037,2024-04-23T16:45:22.162
0.012479599565267563,0.9306263327598572,1.3912767171859741,-5.254499912261963,-0.9246825575828552,0.683158814907074,2024-04-23T16:45:22.182
-0.0650256872177124,1.0808948278427124,1.366633415222168,-6.598085403442383,-0.5825532674789429,0.8337917923927307,2024-04-23T16:45:22.202
-0.11845429241657257,1.3308053016662598,1.0932846069335938,-7.808962345123291,-0.38038066029548645,0.9393338561058044,2024-04-23T16:45:22.222
-0.15094421803951263,1.475886344909668,0.39424389600753784,-8.188308715820312,-0.31667742133140564,1.0741835832595825,2024-04-23T16:45:22.242
-0.2763350307941437,1.2948963642120361,-0.3895496129989624,-7.5940937995910645,-0.38970747590065,0.9998265504837036,2024-04-23T16:45:22.262
-0.47580569982528687,1.045130968093872,-0.829039990901947,-6.709880352020264,-0.5770079493522644,0.5189465880393982,2024-04-23T16:45:22.282
-0.41169631481170654,0.9792389273643494,-0.876623809337616,-6.257779598236084,-1.0944671630859375,0.10943274199962616,2024-04-23T16:45:22.302
-0.3028280735015869,1.0461984872817993,-1.0328497886657715,-6.40092658996582,-1.0603495836257935,-0.030106069520115852,2024-04-23T16:45:22.322
0.01652844250202179,1.0786211490631104,-1.852929711341858,-6.301520824432373,-0.5255186557769775,0.42820611596107483,2024-04-23T16:45:22.342
-0.04296289384365082,0.9417160153388977,-2.9622039794921875,-4.976391315460205,-0.0819275826215744,0.6162825226783752,2024-04-23T16:45:22.362
-0.29976344108581543,0.7139801383018494,-3.9139304161071777,-1.8421298265457153,-0.9649783968925476,0.14807434380054474,2024-04-23T16:45:22.382
-0.3528258204460144,0.5291624069213867,-4.004701137542725,1.3493658304214478,-1.2837668657302856,-0.35314273834228516,2024-04-23T16:45:22.401
-0.06848067045211792,0.4679213762283325,-3.3273768424987793,3.3254382610321045,-0.3670079708099365,-0.1998756229877472,2024-04-23T16:45:22.422
-0.08939105272293091,0.509290337562561,-2.4688944816589355,4.370789527893066,0.6762231588363647,0.1206459030508995,2024-04-23T16:45:22.441
-0.40810614824295044,0.6289373636245728,-1.6668293476104736,4.799193859100342,1.0911389589309692,-0.030596036463975906,2024-04-23T16:45:22.461
-0.4789654016494751,0.6906870007514954,-1.1187849044799805,4.8646697998046875,0.9868861436843872,-0.4362799823284149,2024-04-23T16:45:22.481
-0.2973136603832245,0.8702921867370605,-1.116221308708191,5.358506202697754,0.7769345641136169,-0.6292865872383118,2024-04-23T16:45:22.502
-0.21568375825881958,1.1065503358840942,-1.1083495616912842,6.275669574737549,0.8247702121734619,-0.6579263210296631,2024-04-23T16:45:22.521
-0.3107169270515442,1.305099368095398,-0.7256302237510681,7.156149864196777,0.6560497879981995,-0.8476113080978394,2024-04-23T16:45:22.541
-0.4447639286518097,1.4418511390686035,-0.08666121959686279,7.377146244049072,0.4901336133480072,-1.2678298950195312,2024-04-23T16:45:22.561
-0.3208901584148407,1.4333887100219727,0.4064010977745056,7.0286335945129395,0.6073340177536011,-1.4578067064285278,2024-04-23T16:45:22.581
-0.19914382696151733,1.385898232460022,0.7629517316818237,6.340810298919678,1.065545678138733,-1.389206886291504,2024-04-23T16:45:22.601
-0.1488678753376007,1.2837061882019043,1.0734682083129883,5.545797824859619,1.212562084197998,-1.270471453666687,2024-04-23T16:45:22.621
-0.08962422609329224,1.1822198629379272,1.2351083755493164,4.838963031768799,0.9489110112190247,-1.1927129030227661,2024-04-23T16:45:22.641
-0.03615821897983551,1.0805023908615112,1.3587238788604736,4.120304107666016,0.5605736374855042,-1.171830177307129,2024-04-23T16:45:22.661
0.03025732934474945,0.9893597364425659,1.4377554655075073,3.3020031452178955,0.4535508155822754,-1.0948232412338257,2024-04-23T16:45:22.681
0.12377261370420456,0.896021842956543,1.5308345556259155,2.377535104751587,0.4845399558544159,-0.9080461859703064,2024-04-23T16:45:22.701
0.1935862898826599,0.8379737734794617,1.6305105686187744,1.394871711730957,0.35896170139312744,-0.6205224394798279,2024-04-23T16:45:22.721
0.2421364188194275,0.7848734259605408,1.6806719303131104,0.4143482744693756,0.1441948413848877,-0.28496453166007996,2024-04-23T16:45:22.741
0.25302234292030334,0.7496907711029053,1.7240533828735352,-0.6407673358917236,-0.10063234716653824,0.06926500052213669,2024-04-23T16:45:22.761
0.20173567533493042,0.7243207097053528,1.7049188613891602,-1.6994104385375977,-0.3181452453136444,0.34355226159095764,2024-04-23T16:45:22.781
0.1403266191482544,0.7145280838012695,1.62479567527771,-2.560129404067993,-0.6997129321098328,0.5317170023918152,2024-04-23T16:45:22.801
0.061583686619997025,0.7466177940368652,1.591679573059082,-3.3275396823883057,-1.1762263774871826,0.6422299742698669,2024-04-23T16:45:22.821
-0.03938569873571396,0.8265623450279236,1.5790696144104004,-4.231873989105225,-1.2785722017288208,0.727872371673584,2024-04-23T16:45:22.841
-0.0543849878013134,0.9553478360176086,1.5720937252044678,-5.21603536605835,-1.4125750064849854,0.871994137763977,2024-04-23T16:45:22.861
-0.15406152606010437,1.0958431959152222,1.4981592893600464,-6.159435272216797,-1.6484814882278442,0.9272275567054749,2024-04-23T16:45:22.881
-0.23488488793373108,1.2064895629882812,1.4048250913619995,-7.227357387542725,-1.779405117034912,0.9720592498779297,2024-04-23T16:45:22.901
-0.24623829126358032,1.3379775285720825,1.2020761966705322,-8.345661163330078,-1.930860996246338,1.1636319160461426,2024-04-23T16:45:22.921
-0.44094210863113403,1.4720736742019653,0.6544229984283447,-9.042052268981934,-1.7898155450820923,1.1589713096618652,2024-04-23T16:45:22.941
-0.631443440914154,1.6241040229797363,-0.12837624549865723,-9.162463188171387,-1.250841736793518,0.8063706159591675,2024-04-23T16:45:22.960
-0.47567248344421387,1.7418296337127686,-1.0408209562301636,-8.291108131408691,-1.4043430089950562,0.5928292870521545,2024-04-23T16:45:22.980
-0.3958911895751953,1.6543474197387695,-2.0133814811706543,-6.4209723472595215,-2.2793140411376953,0.506237804889679,2024-04-23T16:45:23.000
-0.4914722144603729,1.3594430685043335,-2.553612232208252,-4.6875319480896,-2.6267154216766357,0.34821081161499023,2024-04-23T16:45:23.020
-0.3772238492965698,1.2741174697875977,-2.8361916542053223,-3.802716016769409,-1.8182286024093628,0.6158323884010315,2024-04-23T16:45:23.040
-0.26941707730293274,1.1891354322433472,-3.5825719833374023,-2.4131295680999756,-0.599315345287323,0.9894619584083557,2024-04-23T16:45:23.060
-0.3221700191497803,0.933820366859436,-4.522340774536133,0.8674083352088928,-0.4604536294937134,0.9948171377182007,2024-04-23T16:45:23.080
-0.4798668920993805,0.8018320202827454,-4.415805816650391,4.4425740242004395,-0.35179492831230164,0.7276261448860168,2024-04-23T16:45:23.100
-0.7051780223846436,0.9631580710411072,-3.084461212158203,6.234324932098389,0.3099440932273865,0.4026535153388977,2024-04-23T16:45:23.120
-0.7950323820114136,1.08271062374115,-1.97346830368042,6.631300926208496,1.2847193479537964,0.07348653674125671,2024-04-23T16:45:23.140
-0.7239580154418945,1.2334799766540527,-1.4508934020996094,6.974896430969238,1.7817368507385254,-0.15262481570243835,2024-04-23T16:45:23.160
-0.7030520439147949,1.441977858543396,-1.144698977470398,7.635237693786621,1.7317490577697754,-0.4548318684101105,2024-04-23T16:45:23.180
-0.6514719724655151,1.6976832151412964,-0.8386330604553223,8.55201530456543,1.280517816543579,-0.8033264875411987,2024-04-23T16:45:23.200
-0.6432111263275146,1.9306161403656006,-0.3567296862602234,9.261713981628418,0.9118415117263794,-1.2296375036239624,2024-04-23T16:45:23.220
-0.5709260702133179,2.0893657207489014,0.3528446555137634,9.152397155761719,0.9538399577140808,-1.5803543329238892,2024-04-23T16:45:23.240
-0.41945892572402954,2.0130972862243652,1.1399815082550049,7.934343338012695,1.3177177906036377,-1.7073208093643188,2024-04-23T16:45:23.260
-0.24580135941505432,1.7383499145507812,1.5683786869049072,6.4181976318359375,1.2975143194198608,-1.6650221347808838,2024-04-23T16:45:23.280
-0.08383119106292725,1.4971706867218018,1.6097795963287354,5.1554789543151855,1.1718159914016724,-1.5196305513381958,2024-04-23T16:45:23.300
0.016625521704554558,1.3224610090255737,1.5899370908737183,4.134151458740234,0.9988658428192139,-1.331490397453308,2024-04-23T16:45:23.320
0.07344739139080048,1.200020670890808,1.5420573949813843,3.4287502765655518,0.6610668301582336,-1.1422010660171509,2024-04-23T16:45:23.342
0.1498536765575409,1.1127724647521973,1.6216723918914795,2.6791939735412598,0.3045812249183655,-0.9119002223014832,2024-04-23T16:45:23.362
0.2463710606098175,1.0243357419967651,1.7893959283828735,1.6275427341461182,-0.07160324603319168,-0.5918874740600586,2024-04-23T16:45:23.382
0.3181237280368805,0.952627420425415,1.8768947124481201,0.3091498911380768,-0.14823958277702332,-0.16136975586414337,2024-04-23T16:45:23.402
0.3197759985923767,0.8933796286582947,1.8268275260925293,-0.9282092452049255,-0.27713894844055176,0.2472926527261734,2024-04-23T16:45:23.422
0.22043730318546295,0.8515965342521667,1.6873342990875244,-1.903181791305542,-0.5369123220443726,0.4962851107120514,2024-04-23T16:45:23.442
0.13044768571853638,0.8939703106880188,1.6535996198654175,-2.8223583698272705,-0.9386464357376099,0.6580199599266052,2024-04-23T16:45:23.462
0.04479019343852997,0.924717366695404,1.5786035060882568,-3.6733598709106445,-1.2910128831863403,0.761491060256958,2024-04-23T16:45:23.482
-0.05383278802037239,1.0001194477081299,1.572739601135254,-4.615928649902344,-1.4717812538146973,0.8133307695388794,2024-04-23T16:45:23.501
-0.09496868401765823,1.1584126949310303,1.6109853982925415,-5.747048854827881,-1.6610280275344849,0.9305050373077393,2024-04-23T16:45:23.522
-0.09825994074344635,1.3167139291763306,1.5135751962661743,-7.030284404754639,-1.6923801898956299,1.1388925313949585,2024-04-23T16:45:23.541
-0.20503810048103333,1.5031689405441284,1.2842159271240234,-8.3667631149292,-1.1713629961013794,1.2249470949172974,2024-04-23T16:45:23.561
-0.35301291942596436,1.7627439498901367,1.0292365550994873,-9.543534278869629,-0.9146121144294739,1.0656098127365112,2024-04-23T16:45:23.581
-0.33484748005867004,1.827528715133667,0.26862114667892456,-9.690555572509766,-1.1635611057281494,0.9935774207115173,2024-04-23T16:45:23.601
-0.4675431549549103,1.7140270471572876,-0.3993663787841797,-9.342991828918457,-1.2712135314941406,0.806853175163269,2024-04-23T16:45:23.622
-0.6294090151786804,1.648962140083313,-1.02119779586792,-8.769826889038086,-1.242177963256836,0.4032394587993622,2024-04-23T16:45:23.641
-0.5738903284072876,1.6175122261047363,-1.9600647687911987,-7.291874408721924,-1.522753119468689,0.0652679055929184,2024-04-23T16:45:23.661
-0.4249113202095032,1.5579512119293213,-2.818373680114746,-5.09188985824585,-2.19842529296875,-0.0007986715063452721,2024-04-23T16:45:23.681
-0.29915687441825867,1.403937816619873,-3.2798337936401367,-3.4258780479431152,-1.798073649406433,0.34109920263290405,2024-04-23T16:45:23.701
-0.2267727255821228,1.2009296417236328,-3.8052806854248047,-1.6514625549316406,-0.5468488335609436,0.7871737480163574,2024-04-23T16:45:23.721
-0.34870481491088867,0.87159264087677,-4.163470268249512,0.9950969815254211,0.0015198041219264269,0.8525002598762512,2024-04-23T16:45:23.741
-0.5458389520645142,0.6630350947380066,-3.8490052223205566,3.674469470977783,0.438577800989151,0.6171870827674866,2024-04-23T16:45:23.761
-0.7077882289886475,0.7944082021713257,-2.8903675079345703,5.437318325042725,0.680084764957428,0.3074093163013458,2024-04-23T16:45:23.781
-0.8294651508331299,0.9292032718658447,-1.8198342323303223,5.901611804962158,1.0069376230239868,-0.15108747780323029,2024-04-23T16:45:23.801
-0.6696332693099976,1.0026915073394775,-1.419969916343689,6.223826885223389,1.6095161437988281,-0.37530893087387085,2024-04-23T16:45:23.821
-0.5414097905158997,1.2262072563171387,-1.1025371551513672,6.750995635986328,1.7912263870239258,-0.4787404537200928,2024-04-23T16:45:23.841
-0.5076211094856262,1.4329525232315063,-0.7980980277061462,7.393904209136963,1.7393105030059814,-0.6125065684318542,2024-04-23T16:45:23.861
-0.5207736492156982,1.670426845550537,-0.4438546299934387,8.069003105163574,1.3053334951400757,-0.8886328935623169,2024-04-23T16:45:23.881
-0.5841245651245117,1.809227705001831,0.03939974308013916,8.487534523010254,0.7647038102149963,-1.4002246856689453,2024-04-23T16:45:23.901
-0.5230672955513,1.8680624961853027,0.6169951558113098,8.148259162902832,0.8128282427787781,-1.8607720136642456,2024-04-23T16:45:23.921
-0.23802687227725983,1.798445463180542,1.1458566188812256,7.017366886138916,1.4550929069519043,-1.765669345855713,2024-04-23T16:45:23.941
-0.058337509632110596,1.6184529066085815,1.4268851280212402,5.787790775299072,1.693803310394287,-1.394519567489624,2024-04-23T16:45:23.961
-0.024789119139313698,1.4123207330703735,1.4935271739959717,4.802603244781494,1.4719163179397583,-1.1234463453292847,2024-04-23T16:45:23.981
0.0009137503802776337,1.2477872371673584,1.5237112045288086,3.9931623935699463,0.9797716736793518,-0.9642440676689148,2024-04-23T16:45:24.001
0.053038232028484344,1.113853931427002,1.580876111984253,3.1906611919403076,0.4978867769241333,-0.827475368976593,2024-04-23T16:45:24.021
0.14516696333885193,1.012648582458496,1.6641626358032227,2.25146484375,0.2595798373222351,-0.6030981540679932,2024-04-23T16:45:24.041
0.21155643463134766,0.9314560294151306,1.7356178760528564,1.2043417692184448,0.0934828668832779,-0.3084392249584198,2024-04-23T16:45:24.060
0.2648214101791382,0.8552320003509521,1.7925140857696533,0.06465166062116623,-0.07029132544994354,0.013915983960032463,2024-04-23T16:45:24.081
0.282321035861969,0.8098238706588745,1.7942466735839844,-1.0811946392059326,-0.24666081368923187,0.3644762337207794,2024-04-23T16:45:24.100
0.20945990085601807,0.7839606404304504,1.7233147621154785,-2.0463876724243164,-0.6434481143951416,0.5975978970527649,2024-04-23T16:45:24.120
0.024252749979496002,0.786451518535614,1.6390409469604492,-2.8159708976745605,-1.1100490093231201,0.5904274582862854,2024-04-23T16:45:24.141
-0.10030265152454376,0.8630151152610779,1.6225775480270386,-3.636317729949951,-1.3092361688613892,0.5040037631988525,2024-04-23T16:45:24.160
-0.07365421950817108,0.9842836260795593,1.6284103393554688,-4.5536417961120605,-1.5396301746368408,0.5494115948677063,2024-04-23T16:45:24.180
-0.01345105655491352,1.158588171005249,1.6299777030944824,-5.646539688110352,-1.8688420057296753,0.816970705986023,2024-04-23T16:45:24.200
-0.13867375254631042,1.344190001487732,1.5887305736541748,-7.075026988983154,-1.7811888456344604,1.04608952999115,2024-04-23T16:45:24.220
-0.3328865170478821,1.5759562253952026,1.3985767364501953,-8.663267135620117,-1.4663187265396118,1.0955047607421875,2024-04-23T16:45:24.240
-0.430161714553833,1.8890321254730225,0.937659740447998,-9.915365219116211,-1.2670245170593262,1.0707178115844727,2024-04-23T16:45:24.260
-0.42263609170913696,2.040640354156494,-0.1283075213432312,-9.943795204162598,-1.1211713552474976,1.0246585607528687,2024-04-23T16:45:24.280
-0.39017254114151,1.9004173278808594,-1.2847601175308228,-8.554778099060059,-1.2480829954147339,0.9560115933418274,2024-04-23T16:45:24.300
-0.6032640933990479,1.4961448907852173,-1.935551643371582,-6.660099983215332,-2.13327956199646,0.5347554683685303,2024-04-23T16:45:24.320
-0.6593374013900757,1.2519474029541016,-2.1154866218566895,-5.6264424324035645,-2.4760279655456543,0.23337902128696442,2024-04-23T16:45:24.340
-0.3234066963195801,1.1823382377624512,-2.794893980026245,-4.950173854827881,-1.560887336730957,0.7008091807365417,2024-04-23T16:45:24.360
-0.3885238766670227,1.041585922241211,-3.6835427284240723,-3.6592366695404053,-0.18815289437770844,0.9448774456977844,2024-04-23T16:45:24.380
-0.46753743290901184,0.8296623229980469,-4.848968982696533,-0.064457967877388,-0.47487834095954895,0.5968976616859436,2024-04-23T16:45:24.400
-0.4609958827495575,0.7130170464515686,-4.949541091918945,4.028001308441162,-0.5599170923233032,0.25990769267082214,2024-04-23T16:45:24.420
-0.6149559020996094,0.8152762651443481,-3.4448890686035156,5.981906414031982,0.18938535451889038,0.012043483555316925,2024-04-23T16:45:24.440
-0.749377965927124,0.9402446746826172,-2.1526947021484375,6.321452617645264,1.3401174545288086,-0.18418733775615692,2024-04-23T16:45:24.460
-0.7451137900352478,1.063615322113037,-1.556225299835205,6.514998912811279,2.0194597244262695,-0.3570554256439209,2024-04-23T16:45:24.480
-0.6174873113632202,1.3382790088653564,-1.2995350360870361,7.174473762512207,1.8383783102035522,-0.5477455854415894,2024-04-23T16:45:24.500
-0.47624436020851135,1.6481825113296509,-1.0664777755737305,8.100602149963379,1.350390076637268,-0.6999722719192505,2024-04-23T16:45:24.520
-0.40659552812576294,1.9225096702575684,-0.7935193181037903,9.134620666503906,0.8693007826805115,-0.8320926427841187,2024-04-23T16:45:24.540
-0.48916149139404297,2.1502156257629395,-0.23585104942321777,9.712514877319336,0.5541695356369019,-1.158521294593811,2024-04-23T16:45:24.560
-0.5684000253677368,2.1769165992736816,0.578627347946167,9.1705322265625,0.6175670623779297,-1.6763091087341309,2024-04-23T16:45:24.579
-0.39005884528160095,2.020702838897705,1.1370373964309692,7.805951118469238,1.2386221885681152,-1.861307144165039,2024-04-23T16:45:24.599
-0.15340714156627655,1.8029072284698486,1.4277782440185547,6.345363616943359,1.5025389194488525,-1.7080345153808594,2024-04-23T16:45:24.619
-0.01285640336573124,1.580230712890625,1.4832956790924072,5.242786884307861,1.1865805387496948,-1.489304542541504,2024-04-23T16:45:24.640
0.07232443988323212,1.4348642826080322,1.459822416305542,4.447091102600098,0.7977668642997742,-1.2547719478607178,2024-04-23T16:45:24.659
0.09857248514890671,1.3058580160140991,1.5893348455429077,3.5353524684906006,0.38846129179000854,-1.0646260976791382,2024-04-23T16:45:24.679
0.1452752947807312,1.1792503595352173,1.6993553638458252,2.4077165126800537,0.07403700798749924,-0.8628119826316833,2024-04-23T16:45:24.700
0.23551148176193237,1.103626012802124,1.7408506870269775,1.1218520402908325,-0.023763829842209816,-0.5283471345901489,2024-04-23T16:45:24.719
0.2848614454269409,1.0552468299865723,1.7499572038650513,-0.24476461112499237,0.04289581626653671,-0.11733138561248779,2024-04-23T16:45:24.739
0.2450607866048813,1.0290436744689941,1.663654088973999,-1.4177486896514893,-0.016962116584181786,0.2211819291114807,2024-04-23T16:45:24.759
0.20840048789978027,1.0337133407592773,1.538818359375,-2.251746416091919,-0.3759292960166931,0.499371737241745,2024-04-23T16:45:24.779
0.15718546509742737,1.0720055103302002,1.4949753284454346,-2.9513566493988037,-0.8909926414489746,0.7391806840896606,2024-04-23T16:45:24.799
0.1211051493883133,1.1466538906097412,1.5218197107315063,-3.7413129806518555,-1.3818906545639038,1.0035231113433838,2024-04-23T16:45:24.819
-0.004960689693689346,1.2237482070922852,1.4979289770126343,-4.655038356781006,-1.564671277999878,1.1834156513214111,2024-04-23T16:45:24.839
-0.08334625512361526,1.3641573190689087,1.4706816673278809,-5.670648574829102,-1.6784759759902954,1.3513292074203491,2024-04-23T16:45:24.859
-0.17961925268173218,1.5476126670837402,1.496429681777954,-7.026556015014648,-1.4873875379562378,1.4746745824813843,2024-04-23T16:45:24.879
-0.26577770709991455,1.8120006322860718,1.345432996749878,-8.594014167785645,-1.1704822778701782,1.4916951656341553,2024-04-23T16:45:24.899
-0.28647005558013916,2.0657079219818115,0.5653132200241089,-9.186761856079102,-1.071610927581787,1.5513983964920044,2024-04-23T16:45:24.919
-0.46348053216934204,2.0748953819274902,-0.17486560344696045,-9.034335136413574,-0.9050767421722412,1.3267773389816284,2024-04-23T16:45:24.939
-0.5384504795074463,1.9459662437438965,-0.5621957778930664,-8.702874183654785,-0.9604637622833252,0.9403730630874634,2024-04-23T16:45:24.959
-0.6064751744270325,1.761145830154419,-0.8376307487487793,-8.486275672912598,-1.4075220823287964,0.5268979072570801,2024-04-23T16:45:24.979
-0.7459299564361572,1.6098624467849731,-1.5991661548614502,-7.922226905822754,-1.1578608751296997,0.05877019464969635,2024-04-23T16:45:24.999
-0.3892281651496887,1.4893827438354492,-2.366697311401367,-6.921847820281982,-1.1294269561767578,0.33729419112205505,2024-04-23T16:45:25.019
-0.2826196849346161,1.0081313848495483,-3.232107639312744,-5.821377277374268,-0.5287357568740845,0.991122305393219,2024-04-23T16:45:25.039
-0.7088189125061035,0.6916748881340027,-4.204257011413574,-3.642862319946289,0.4471264183521271,0.7322256565093994,2024-04-23T16:45:25.059
-0.6838085651397705,0.37281298637390137,-4.889931678771973,0.5928524136543274,-0.02409323677420616,0.0038448041304945946,2024-04-23T16:45:25.079
-0.3737470507621765,0.3624628782272339,-3.9074249267578125,3.6804020404815674,-0.40803736448287964,-0.33505064249038696,2024-04-23T16:45:25.099
-0.12737318873405457,0.49207451939582825,-2.4904887676239014,4.440093040466309,0.3122197985649109,-0.13396073877811432,2024-04-23T16:45:25.119
-0.14248265326023102,0.621311366558075,-1.734392523765564,4.372840404510498,1.3545072078704834,0.15707272291183472,2024-04-23T16:45:25.139
-0.24023453891277313,0.7683098316192627,-1.4691598415374756,4.56483793258667,1.7077816724777222,0.17579811811447144,2024-04-23T16:45:25.159
-0.24583503603935242,0.9671722054481506,-1.5062603950500488,5.493968486785889,1.356743335723877,0.07758799195289612,2024-04-23T16:45:25.179
-0.22686949372291565,1.2437634468078613,-1.3522257804870605,6.732996463775635,0.5758292078971863,-0.10275518894195557,2024-04-23T16:45:25.199
-0.20794111490249634,1.471137285232544,-0.9710325002670288,7.704656600952148,-0.12823206186294556,-0.2767091393470764,2024-04-23T16:45:25.219
-0.23774072527885437,1.6286067962646484,-0.4525412917137146,8.044732093811035,-0.3565469980239868,-0.473583847284317,2024-04-23T16:45:25.239
-0.3874392509460449,1.611564040184021,0.046703219413757324,7.743878364562988,0.3160035312175751,-0.810250461101532,2024-04-23T16:45:25.259
-0.4351425766944885,1.5352513790130615,0.47125905752182007,7.050259113311768,1.2751771211624146,-1.1114879846572876,2024-04-23T16:45:25.278
-0.23655915260314941,1.467247724533081,0.6642657518386841,6.631537914276123,1.407253623008728,-1.1121773719787598,2024-04-23T16:45:25.298
-0.22024670243263245,1.4185895919799805,0.8359531760215759,6.505349636077881,0.7146040797233582,-1.2286642789840698,2024-04-23T16:45:25.318
-0.18127329647541046,1.3742408752441406,1.0120786428451538,6.252289295196533,0.0919710025191307,-1.4769881963729858,2024-04-23T16:45:25.338
-0.04314076155424118,1.3722734451293945,1.1744250059127808,5.697580814361572,0.13808269798755646,-1.5375003814697266,2024-04-23T16:45:25.358
0.10053835064172745,1.317671775817871,1.4842698574066162,4.586482524871826,0.2818194031715393,-1.3812285661697388,2024-04-23T16:45:25.378
0.22295311093330383,1.2132713794708252,1.6781830787658691,3.1866917610168457,0.26834020018577576,-1.0831998586654663,2024-04-23T16:45:25.398
0.3339315354824066,1.1352297067642212,1.7068979740142822,1.782131314277649,0.27383893728256226,-0.6555211544036865,2024-04-23T16:45:25.418
0.404490202665329,1.0567681789398193,1.6068742275238037,0.6106939911842346,0.2675657570362091,-0.17255498468875885,2024-04-23T16:45:25.438
0.35486674308776855,1.0366675853729248,1.6054513454437256,-0.5239802598953247,0.26470205187797546,0.2189333289861679,2024-04-23T16:45:25.458
0.26733148097991943,1.0357038974761963,1.5674701929092407,-1.4870619773864746,-0.060470420867204666,0.4651583731174469,2024-04-23T16:45:25.478
0.19747766852378845,1.021585464477539,1.503090500831604,-2.2460548877716064,-0.5979115962982178,0.6287675499916077,2024-04-23T16:45:25.498
0.16884680092334747,1.0518414974212646,1.4286470413208008,-2.9597270488739014,-0.9231037497520447,0.8389716744422913,2024-04-23T16:45:25.518
0.11563263088464737,1.1227245330810547,1.4943408966064453,-3.952202081680298,-0.9935914874076843,1.0434545278549194,2024-04-23T16:45:25.538
0.06714040040969849,1.2179425954818726,1.4828383922576904,-4.982208251953125,-1.1192952394485474,1.225185513496399,2024-04-23T16:45:25.558
-0.016426000744104385,1.3207387924194336,1.4256141185760498,-5.968944549560547,-1.354465126991272,1.3327983617782593,2024-04-23T16:45:25.578
-0.1259118914604187,1.5008978843688965,1.384878158569336,-7.164802551269531,-1.250203013420105,1.405197262763977,2024-04-23T16:45:25.598
-0.21717815101146698,1.6536645889282227,1.2525593042373657,-8.559865951538086,-0.7767014503479004,1.4353327751159668,2024-04-23T16:45:25.618
-0.28064072132110596,1.8067138195037842,0.8894208073616028,-9.656496047973633,-0.6508151888847351,1.3948129415512085,2024-04-23T16:45:25.638
-0.5306992530822754,1.9183366298675537,0.3100910782814026,-10.082160949707031,-0.5514179468154907,1.0346099138259888,2024-04-23T16:45:25.658
-0.6342369914054871,2.1116724014282227,-0.06112796068191528,-10.481356620788574,-0.6656321287155151,0.5807031989097595,2024-04-23T16:45:25.678
-0.5165222883224487,2.2604358196258545,-0.9755083918571472,-10.230250358581543,-0.5828065872192383,0.3441578149795532,2024-04-23T16:45:25.698
-0.5045307874679565,2.2914111614227295,-2.16772723197937,-8.754402160644531,-1.356031894683838,0.08375407755374908,2024-04-23T16:45:25.718
-0.4710531234741211,2.0493381023406982,-3.543508291244507,-5.738837242126465,-3.0476889610290527,-0.010016772896051407,2024-04-23T16:45:25.738
-0.19761329889297485,1.649773120880127,-4.183732032775879,-3.174518346786499,-3.0301527976989746,0.6548355221748352,2024-04-23T16:45:25.758
-0.28109580278396606,1.2795591354370117,-4.486502647399902,-1.2860143184661865,-0.8935869932174683,1.309199333190918,2024-04-23T16:45:25.778
-0.5091211795806885,0.7989721298217773,-4.818539142608643,1.842405080795288,0.20939481258392334,1.3386285305023193,2024-04-23T16:45:25.798
-0.8606640100479126,0.6581347584724426,-4.090254783630371,4.91309118270874,0.16239134967327118,0.7692322731018066,2024-04-23T16:45:25.818
-1.116072416305542,0.869866669178009,-2.7731549739837646,6.455597877502441,0.3829568922519684,-0.05544064939022064,2024-04-23T16:45:25.838
-0.868463397026062,1.0868678092956543,-1.7923471927642822,6.945907115936279,1.0437124967575073,-0.44761908054351807,2024-04-23T16:45:25.858
-0.7259960770606995,1.3409572839736938,-1.2532358169555664,7.3950629234313965,1.5690045356750488,-0.6028458476066589,2024-04-23T16:45:25.878
-0.6874317526817322,1.5807771682739258,-0.7754650115966797,7.877955436706543,1.4138015508651733,-0.8887841701507568,2024-04-23T16:45:25.897
-0.6570950746536255,1.7679107189178467,-0.40325498580932617,8.438070297241211,0.9080923795700073,-1.3607147932052612,2024-04-23T16:45:25.917
-0.5428515076637268,1.93954598903656,-0.0033626556396484375,8.831500053405762,0.5907760262489319,-1.811773419380188,2024-04-23T16:45:25.937
-0.4374357759952545,1.9945777654647827,0.5764230489730835,8.368492126464844,1.2003411054611206,-2.050429105758667,2024-04-23T16:45:25.957
-0.2585620582103729,1.8887965679168701,1.066023349761963,7.355526924133301,1.9368114471435547,-1.9257218837738037,2024-04-23T16:45:25.977
-0.19414523243904114,1.7100298404693604,1.3605499267578125,6.388453006744385,1.787959098815918,-1.7897099256515503,2024-04-23T16:45:25.997
-0.1346133053302765,1.5010321140289307,1.4688537120819092,5.503948211669922,1.272330641746521,-1.78803288936615,2024-04-23T16:45:26.017
-0.036160506308078766,1.3379926681518555,1.4486019611358643,4.578583717346191,1.3044058084487915,-1.7217745780944824,2024-04-23T16:45:26.037
0.05070953816175461,1.212497591972351,1.509084701538086,3.5589706897735596,1.5212253332138062,-1.5782805681228638,2024-04-23T16:45:26.057
0.22010746598243713,1.1490305662155151,1.5957436561584473,2.607940435409546,1.2445745468139648,-1.2099037170410156,2024-04-23T16:45:26.077
0.4151284396648407,1.0526137351989746,1.6841320991516113,1.6548006534576416,0.5778020620346069,-0.6195937395095825,2024-04-23T16:45:26.097
0.4589376449584961,0.9640545845031738,1.7037047147750854,0.6639466881752014,0.07120800763368607,0.0238324087113142,2024-04-23T16:45:26.117
0.37802642583847046,0.9411073327064514,1.7206568717956543,-0.38099515438079834,-0.21787653863430023,0.5787819027900696,2024-04-23T16:45:26.137
0.1807301640510559,0.882927656173706,1.7067421674728394,-1.3558160066604614,-0.5401766896247864,0.8389991521835327,2024-04-23T16:45:26.157
0.016977950930595398,0.8823475241661072,1.7214031219482422,-2.317115068435669,-0.9517475962638855,0.8786703944206238,2024-04-23T16:45:26.177
-0.031888023018836975,0.9501965641975403,1.746912956237793,-3.3115768432617188,-1.3534718751907349,0.9496292471885681,2024-04-23T16:45:26.197
-0.058204762637615204,1.0499200820922852,1.7353044748306274,-4.309487342834473,-1.7118600606918335,1.0966137647628784,2024-04-23T16:45:26.217
-0.19485150277614594,1.167517900466919,1.7527756690979004,-5.305992603302002,-2.189091444015503,1.1565006971359253,2024-04-23T16:45:26.237
-0.30798712372779846,1.324315071105957,1.716609001159668,-6.315949440002441,-2.5565743446350098,1.1841217279434204,2024-04-23T16:45:26.257
-0.41070687770843506,1.5568346977233887,1.6789439916610718,-7.6106719970703125,-2.6833863258361816,1.226659893989563,2024-04-23T16:45:26.277
-0.43410369753837585,1.7888253927230835,1.5115225315093994,-9.155973434448242,-2.6287155151367188,1.4375077486038208,2024-04-23T16:45:26.297
-0.626913845539093,2.0476455688476562,0.8584308624267578,-10.41645336151123,-2.077841281890869,1.47910475730896,2024-04-23T16:45:26.317
-0.9637585878372192,2.361809015274048,-0.10567653179168701,-11.17710018157959,-1.2217249870300293,1.0900874137878418,2024-04-23T16:45:26.337
-0.9377691149711609,2.594766616821289,-1.3796544075012207,-10.936840057373047,-0.33588650822639465,0.5332337021827698,2024-04-23T16:45:26.357
-0.5683850049972534,2.495760202407837,-2.724043846130371,-8.955164909362793,-1.1064797639846802,0.19198858737945557,2024-04-23T16:45:26.377
-0.26024556159973145,2.1122562885284424,-4.208617210388184,-5.308816432952881,-2.3993117809295654,0.31961068511009216,2024-04-23T16:45:26.397
-0.11207199096679688,1.4080824851989746,-4.727889537811279,-2.0176889896392822,-2.022318124771118,0.8055402040481567,2024-04-23T16:45:26.417
-0.31197383999824524,0.9451764822006226,-4.3778076171875,0.12116826325654984,-0.5616413950920105,1.1273384094238281,2024-04-23T16:45:26.437
-0.6062778234481812,0.5282157063484192,-4.05261754989624,2.2918925285339355,0.46636438369750977,0.9703900218009949,2024-04-23T16:45:26.457
-0.794823169708252,0.4095410108566284,-3.390967845916748,4.388129234313965,0.8639334440231323,0.5197429060935974,2024-04-23T16:45:26.476
-0.9481987953186035,0.6576969623565674,-2.3009071350097656,5.468504905700684,0.8896532654762268,-0.09422096610069275,2024-04-23T16:45:26.497
-0.6714871525764465,0.9176428914070129,-1.6164112091064453,5.6016082763671875,1.6693960428237915,-0.2651978135108948,2024-04-23T16:45:26.517
-0.4404788613319397,1.2110812664031982,-1.4344913959503174,6.084716796875,2.411792278289795,-0.05436975508928299,2024-04-23T16:45:26.537
-0.4881563186645508,1.4987409114837646,-1.1017614603042603,6.860918998718262,2.347957134246826,-0.037232305854558945,2024-04-23T16:45:26.557
-0.5650795698165894,1.7315170764923096,-0.7668360471725464,7.975454807281494,1.6552659273147583,-0.2981763482093811,2024-04-23T16:45:26.576
-0.655531108379364,1.9131048917770386,-0.23588567972183228,8.8591890335083,1.0451562404632568,-0.8342717289924622,2024-04-23T16:45:26.596
-0.5766477584838867,2.049862861633301,0.44336873292922974,8.87290096282959,1.2426141500473022,-1.1905490159988403,2024-04-23T16:45:26.616
-0.39931032061576843,1.9845751523971558,1.1107234954833984,7.97980260848999,1.7113869190216064,-1.177878499031067,2024-04-23T16:45:26.636
-0.28913161158561707,1.7739391326904297,1.4655002355575562,6.998703479766846,1.3338470458984375,-1.1321715116500854,2024-04-23T16:45:26.656
-0.2051597386598587,1.5699458122253418,1.565942645072937,6.052746772766113,0.920793890953064,-1.1613118648529053,2024-04-23T16:45:26.676
-0.0709715262055397,1.4094222784042358,1.632492184638977,4.945373058319092,0.9804973006248474,-1.0258084535598755,2024-04-23T16:45:26.696
0.05412772297859192,1.2526390552520752,1.729764461517334,3.748807191848755,0.8553817868232727,-0.7645503878593445,2024-04-23T16:45:26.716
0.06402783840894699,1.089632511138916,1.7551393508911133,2.6790363788604736,0.3732340931892395,-0.624381422996521,2024-04-23T16:45:26.736
0.13159509003162384,0.9799041152000427,1.7310891151428223,1.6444045305252075,-0.002053978852927685,-0.4545871615409851,2024-04-23T16:45:26.756
0.2275909036397934,0.9088609218597412,1.7597200870513916,0.4565500020980835,-0.06109458580613136,-0.1310301572084427,2024-04-23T16:45:26.776
0.28351375460624695,0.8401127457618713,1.799183964729309,-0.8076031804084778,-0.1244070902466774,0.2442479282617569,2024-04-23T16:45:26.796
0.23621287941932678,0.7993054986000061,1.7455956935882568,-1.846731424331665,-0.4896028935909271,0.5394344925880432,2024-04-23T16:45:26.816
0.0822635069489479,0.8204771280288696,1.7507641315460205,-2.7641968727111816,-1.1533443927764893,0.6426116228103638,2024-04-23T16:45:26.836
-0.01846391335129738,0.8968678116798401,1.7344670295715332,-3.686410427093506,-1.7070133686065674,0.7069993615150452,2024-04-23T16:45:26.856
-0.016617123037576675,1.046454906463623,1.6924480199813843,-4.663965225219727,-2.0050432682037354,0.9445821642875671,2024-04-23T16:45:26.876
-0.07690153270959854,1.2154568433761597,1.562008261680603,-5.4282546043396,-2.381526470184326,1.207921028137207,2024-04-23T16:45:26.896
-0.17910011112689972,1.3416194915771484,1.3250184059143066,-5.800490379333496,-2.754610776901245,1.4449841976165771,2024-04-23T16:45:26.916
-0.27594608068466187,1.3489384651184082,1.1618188619613647,-6.248337745666504,-2.627307891845703,1.6338374614715576,2024-04-23T16:45:26.936
-0.4240565001964569,1.3701722621917725,1.1470668315887451,-7.326090335845947,-2.438882350921631,1.6399718523025513,2024-04-23T16:45:26.956
-0.6472973823547363,1.4721544981002808,0.5852586030960083,-8.250990867614746,-1.799391746520996,1.4541531801223755,2024-04-23T16:45:26.974
-1.0680780410766602,1.6157634258270264,-0.1539626121520996,-9.060503005981445,-1.3134204149246216,0.6954899430274963,2024-04-23T16:45:26.994
-1.2973761558532715,1.9430724382400513,-1.2844572067260742,-9.626951217651367,-0.6231629848480225,-0.251887708902359,2024-04-23T16:45:27.014
-0.3390946388244629,2.0385046005249023,-3.2220325469970703,-8.411248207092285,1.165535807609558,0.0756043866276741,2024-04-23T16:45:27.033
0.24866360425949097,1.7005703449249268,-4.3701491355896,-5.6074910163879395,1.0289334058761597,0.6195888519287109,2024-04-23T16:45:27.053
0.2573106586933136,1.020962119102478,-5.235592842102051,-1.1578320264816284,-0.5267485976219177,0.8646231293678284,2024-04-23T16:45:27.073
-0.038281530141830444,0.5761276483535767,-4.604734897613525,2.069239616394043,-1.009172797203064,0.8808532357215881,2024-04-23T16:45:27.093
-0.2230129837989807,0.23976266384124756,-3.5607192516326904,3.7488346099853516,-0.2251860797405243,0.9405077695846558,2024-04-23T16:45:27.113
-0.5970957279205322,0.12172374129295349,-2.5070555210113525,4.49951171875,0.42635560035705566,0.7096070051193237,2024-04-23T16:45:27.133
-0.8032535314559937,0.2838365435600281,-1.795485496520996,4.6108574867248535,0.9253575205802917,0.3182331919670105,2024-04-23T16:45:27.153
-0.7881432175636292,0.5999144911766052,-1.6396114826202393,4.668822288513184,1.9301475286483765,0.07850763946771622,2024-04-23T16:45:27.173
-0.6346920728683472,1.0027198791503906,-1.799241065979004,5.894747257232666,2.1923155784606934,0.025592604652047157,2024-04-23T16:45:27.193
-0.6584644913673401,1.4130712747573853,-1.3799777030944824,7.515166759490967,1.312315583229065,-0.29957249760627747,2024-04-23T16:45:27.213
-0.6367620229721069,1.7448110580444336,-0.5950063467025757,8.395191192626953,0.7838231921195984,-0.7369731068611145,2024-04-23T16:45:27.233
-0.5805678367614746,1.8944196701049805,0.2907716631889343,8.135396957397461,1.1345309019088745,-1.0820952653884888,2024-04-23T16:45:27.253
-0.5251274704933167,1.8381788730621338,0.9792138934135437,7.130200386047363,1.6333611011505127,-1.3327215909957886,2024-04-23T16:45:27.273
-0.37428438663482666,1.697603702545166,1.2430589199066162,6.265378952026367,1.487707257270813,-1.4407974481582642,2024-04-23T16:45:27.293
-0.20207487046718597,1.593095302581787,1.3561936616897583,5.583371162414551,1.0093547105789185,-1.3718147277832031,2024-04-23T16:45:27.313
-0.12476620078086853,1.4848809242248535,1.4732820987701416,4.822783470153809,0.6600837111473083,-1.2962791919708252,2024-04-23T16:45:27.338
-0.0929281935095787,1.3662750720977783,1.5763944387435913,3.8796074390411377,0.7138954997062683,-1.1839364767074585,2024-04-23T16:45:27.358
-0.006227642297744751,1.236004114151001,1.6954421997070312,2.855349540710449,0.6326216459274292,-1.0156810283660889,2024-04-23T16:45:27.377
0.15257737040519714,1.1319373846054077,1.8599684238433838,1.6516938209533691,0.28738778829574585,-0.7309090495109558,2024-04-23T16:45:27.397
0.3041107952594757,1.0404293537139893,1.912917137145996,0.32795414328575134,0.03219102695584297,-0.2832425534725189,2024-04-23T16:45:27.417
0.35780924558639526,0.9606943726539612,1.918125033378601,-1.0263994932174683,-0.11425825953483582,0.20110921561717987,2024-04-23T16:45:27.437
0.2950302064418793,0.9212580919265747,1.8382127285003662,-2.181135416030884,-0.36856991052627563,0.5578042268753052,2024-04-23T16:45:27.457
0.16944095492362976,0.9209417700767517,1.7923555374145508,-3.0946333408355713,-1.0000401735305786,0.7168318033218384,2024-04-23T16:45:27.477
0.100645050406456,0.9729779362678528,1.7501165866851807,-3.9256529808044434,-1.652119517326355,0.8800496459007263,2024-04-23T16:45:27.497
0.06001078709959984,1.073157787322998,1.765495777130127,-4.884254455566406,-2.1961851119995117,1.1216199398040771,2024-04-23T16:45:27.517
-0.09202858060598373,1.2148175239562988,1.746704339981079,-5.984923839569092,-2.417461395263672,1.2999334335327148,2024-04-23T16:45:27.537
-0.326058954000473,1.4032288789749146,1.6713929176330566,-7.356917858123779,-1.9147756099700928,1.2961833477020264,2024-04-23T16:45:27.557
-0.337138295173645,1.6149952411651611,1.4247380495071411,-8.809286117553711,-1.1172752380371094,1.4090826511383057,2024-04-23T16:45:27.577
-0.394161581993103,1.8153517246246338,1.1750898361206055,-10.485953330993652,-0.48359137773513794,1.4128199815750122,2024-04-23T16:45:27.597
-0.764775276184082,2.089543342590332,0.5218292474746704,-11.804669380187988,0.06558763235807419,0.6928028464317322,2024-04-23T16:45:27.617
-0.7610267400741577,2.311835765838623,-0.8775792717933655,-11.361903190612793,0.1706867218017578,-0.18241940438747406,2024-04-23T16:45:27.637
-0.4189261198043823,2.4208133220672607,-2.5170304775238037,-8.451761245727539,-2.083254098892212,-0.6318005323410034,2024-04-23T16:45:27.657
-0.17283624410629272,1.8982170820236206,-4.031432151794434,-3.9592909812927246,-4.033873081207275,-0.46995997428894043,2024-04-23T16:45:27.677
-0.013801932334899902,1.3327176570892334,-3.7513575553894043,-1.7899348735809326,-3.1467509269714355,0.19791465997695923,2024-04-23T16:45:27.697
-0.11580389738082886,0.9241910576820374,-3.359851360321045,-1.4331538677215576,-0.5448629260063171,0.91184002161026,2024-04-23T16:45:27.717
-0.3732185959815979,0.5577208995819092,-3.728581428527832,0.1927390992641449,0.4149749279022217,0.9806303381919861,2024-04-23T16:45:27.737
-0.5852757692337036,0.3535665273666382,-3.8338632583618164,2.9714107513427734,0.1786952018737793,0.5944587588310242,2024-04-23T16:45:27.757
-0.6733309626579285,0.5072449445724487,-3.0844826698303223,4.960451602935791,0.4148171842098236,0.23727859556674957,2024-04-23T16:45:27.777
-0.7200527191162109,0.7217845916748047,-2.1426994800567627,5.648929595947266,1.2774590253829956,-0.04832690581679344,2024-04-23T16:45:27.797
-0.7455195188522339,0.9103866815567017,-1.560800313949585,6.135097980499268,1.6760796308517456,-0.3656664490699768,2024-04-23T16:45:27.817
-0.658928632736206,1.1605440378189087,-1.0951019525527954,6.642037868499756,1.5635181665420532,-0.6639919281005859,2024-04-23T16:45:27.837
-0.5281373858451843,1.3986719846725464,-0.767162561416626,7.172595024108887,1.563559651374817,-0.8005443215370178,2024-04-23T16:45:27.857
-0.505692720413208,1.6087558269500732,-0.35094910860061646,7.532976150512695,1.6048972606658936,-0.8990330100059509,2024-04-23T16:45:27.877
-0.49472182989120483,1.6882636547088623,0.14965355396270752,7.564049243927002,1.4447821378707886,-1.088171362876892,2024-04-23T16:45:27.897
-0.46986889839172363,1.6803189516067505,0.577487587928772,7.343790531158447,1.1935889720916748,-1.357438564300537,2024-04-23T16:45:27.917
-0.3341744542121887,1.6341536045074463,0.9296761751174927,6.819225788116455,1.1537286043167114,-1.4654788970947266,2024-04-23T16:45:27.937
-0.19934506714344025,1.5192540884017944,1.1921932697296143,6.124866485595703,0.9724316000938416,-1.4740464687347412,2024-04-23T16:45:27.956
-0.08523833751678467,1.3868365287780762,1.3509883880615234,5.360537528991699,0.6684197783470154,-1.41705322265625,2024-04-23T16:45:27.976
-0.002545177936553955,1.2387568950653076,1.4729671478271484,4.489322185516357,0.35806265473365784,-1.3304729461669922,2024-04-23T16:45:27.996
0.12443224340677261,1.1082813739776611,1.5808943510055542,3.392641067504883,0.38534069061279297,-1.0937473773956299,2024-04-23T16:45:28.016
0.212604820728302,0.9972333312034607,1.6302530765533447,2.2791976928710938,0.365165114402771,-0.7667111754417419,2024-04-23T16:45:28.037
0.250053733587265,0.9010059237480164,1.6658058166503906,1.201681137084961,0.16924066841602325,-0.4391244649887085,2024-04-23T16:45:28.056
0.300332635641098,0.8381397724151611,1.6440726518630981,0.23010671138763428,-0.1152791902422905,-0.07048772275447845,2024-04-23T16:45:28.076
0.3238932192325592,0.800980269908905,1.6477835178375244,-0.7241537570953369,-0.46054303646087646,0.3180416226387024,2024-04-23T16:45:28.096
0.2446116805076599,0.8088571429252625,1.6637765169143677,-1.7026089429855347,-0.7925439476966858,0.6119720935821533,2024-04-23T16:45:28.116
0.17259860038757324,0.8405927419662476,1.6565673351287842,-2.6632769107818604,-1.1044113636016846,0.8352447748184204,2024-04-23T16:45:28.136
0.11036579310894012,0.9223334789276123,1.6374768018722534,-3.587130069732666,-1.4575037956237793,1.0373233556747437,2024-04-23T16:45:28.156
0.020390421152114868,1.023173213005066,1.5974981784820557,-4.460026741027832,-1.96896231174469,1.171242117881775,2024-04-23T16:45:28.176
-0.03317246586084366,1.1758954524993896,1.4120827913284302,-5.135822296142578,-2.284324884414673,1.392754077911377,2024-04-23T16:45:28.196
-0.12621624767780304,1.3439345359802246,1.4496464729309082,-6.10770845413208,-2.5666980743408203,1.615859031677246,2024-04-23T16:45:28.216
-0.23430730402469635,1.5630981922149658,1.4556894302368164,-7.530478000640869,-2.5812180042266846,1.8401811122894287,2024-04-23T16:45:28.236
-0.4296973943710327,1.7313008308410645,0.9691901206970215,-8.716368675231934,-2.026810646057129,1.8533085584640503,2024-04-23T16:45:28.256
-0.5078597068786621,1.7580375671386719,0.016736149787902832,-8.622627258300781,-1.6953918933868408,1.7545742988586426,2024-04-23T16:45:28.276
-0.5908198952674866,1.6050323247909546,-0.5534495115280151,-8.019964218139648,-2.026797294616699,1.581400752067566,2024-04-23T16:45:28.296
-0.9053773880004883,1.4805774688720703,-0.8896456956863403,-7.777736186981201,-2.129288911819458,1.167497158050537,2024-04-23T16:45:28.316
-0.8870227336883545,1.4915492534637451,-1.7949435710906982,-7.261136054992676,-1.1546556949615479,0.9928369522094727,2024-04-23T16:45:28.336
-0.5952622890472412,1.3858500719070435,-2.697179079055786,-6.086395740509033,-0.3345226049423218,1.08077073097229,2024-04-23T16:45:28.356
-0.4949147403240204,1.084613561630249,-3.5627260208129883,-3.9320178031921387,-0.12536783516407013,1.1566038131713867,2024-04-23T16:45:28.376
-0.599668025970459,0.7108191847801208,-3.982332229614258,-1.2768452167510986,-0.010554182343184948,0.8588274121284485,2024-04-23T16:45:28.396
-0.5742703676223755,0.36100631952285767,-3.7938170433044434,1.3399840593338013,-0.0750451534986496,0.5241196751594543,2024-04-23T16:45:28.416
-0.5516005158424377,0.16987690329551697,-3.152991771697998,3.226750612258911,0.4215739667415619,0.2889774739742279,2024-04-23T16:45:28.436
-0.5902278423309326,0.19037854671478271,-2.293437957763672,4.200268745422363,1.2472840547561646,0.14450675249099731,2024-04-23T16:45:28.456
-0.5920159816741943,0.3872111439704895,-1.5626866817474365,4.57584285736084,1.653814435005188,0.03429824486374855,2024-04-23T16:45:28.476
-0.6105731725692749,0.5672358274459839,-1.1023296117782593,4.494881629943848,2.002580165863037,-0.17794010043144226,2024-04-23T16:45:28.496
-0.5319343209266663,0.778856098651886,-1.0491290092468262,4.793574810028076,1.9325933456420898,-0.4058610200881958,2024-04-23T16:45:28.516
-0.3841713070869446,1.0148677825927734,-1.1803038120269775,5.7913289070129395,1.8196372985839844,-0.5203952193260193,2024-04-23T16:45:28.536
-0.3504548966884613,1.3204299211502075,-0.9483164548873901,7.121997356414795,1.3120115995407104,-0.6648123264312744,2024-04-23T16:45:28.555
-0.37482863664627075,1.5682827234268188,-0.35397809743881226,8.070082664489746,0.6871070265769958,-0.9281744360923767,2024-04-23T16:45:28.575
-0.31497475504875183,1.665950059890747,0.4204687476158142,7.9439544677734375,0.5741178393363953,-1.181093454360962,2024-04-23T16:45:28.595
-0.13535508513450623,1.5705561637878418,0.9985845685005188,6.987308025360107,1.0674614906311035,-1.1300474405288696,2024-04-23T16:45:28.615
-0.002573065459728241,1.3954927921295166,1.3559106588363647,5.7254228591918945,1.402046799659729,-0.8891361355781555,2024-04-23T16:45:28.635
-0.007563013583421707,1.2133283615112305,1.4588102102279663,4.711999893188477,1.1489135026931763,-0.7911437153816223,2024-04-23T16:45:28.655
0.03864303231239319,1.0777699947357178,1.4809725284576416,3.8655030727386475,0.7227790355682373,-0.7679813504219055,2024-04-23T16:45:28.675
0.11681220680475235,0.9784044623374939,1.521108627319336,3.0808842182159424,0.21686749160289764,-0.7070295214653015,2024-04-23T16:45:28.695
0.17125770449638367,0.8865676522254944,1.6075952053070068,2.13657546043396,0.010184166021645069,-0.566889762878418,2024-04-23T16:45:28.715
0.17919449508190155,0.8528276681900024,1.7671053409576416,0.8274303674697876,0.29695257544517517,-0.34538203477859497,2024-04-23T16:45:28.735
0.23256359994411469,0.8511283993721008,1.834480881690979,-0.4999036490917206,0.4837135970592499,-0.022137079387903214,2024-04-23T16:45:28.755
0.2404237985610962,0.846016526222229,1.8645349740982056,-1.6383392810821533,0.06578896939754486,0.25708383321762085,2024-04-23T16:45:28.775
0.18055252730846405,0.8610143661499023,1.935645341873169,-2.7433485984802246,-0.6642969846725464,0.4280725121498108,2024-04-23T16:45:28.795
0.12346647679805756,0.9145398736000061,1.851768970489502,-3.7636489868164062,-1.1047896146774292,0.5908339619636536,2024-04-23T16:45:28.815
0.07254786044359207,0.9872020483016968,1.8033701181411743,-4.710379600524902,-1.4822341203689575,0.7820398807525635,2024-04-23T16:45:28.835
-0.07093217968940735,1.1021133661270142,1.8267091512680054,-5.727687835693359,-2.032754421234131,0.907331109046936,2024-04-23T16:45:28.855
-0.12754982709884644,1.2626872062683105,1.728074073791504,-6.916415691375732,-2.3160178661346436,1.1928603649139404,2024-04-23T16:45:28.875
-0.17461305856704712,1.4616377353668213,1.4649982452392578,-8.361717224121094,-2.1585168838500977,1.6082115173339844,2024-04-23T16:45:28.895
-0.6587160229682922,1.6941845417022705,0.9425529837608337,-9.936066627502441,-1.5620700120925903,1.4137934446334839,2024-04-23T16:45:28.915
-0.9485344886779785,1.9002488851547241,-0.4861339330673218,-10.046611785888672,-0.8151031732559204,0.7678993940353394,2024-04-23T16:45:28.935
-0.7640260457992554,1.9585191011428833,-1.4360783100128174,-9.351383209228516,-0.6586121916770935,0.3071407675743103,2024-04-23T16:45:28.955
-0.42466747760772705,1.9532279968261719,-2.763401985168457,-7.390124320983887,-0.867010772228241,0.18598322570323944,2024-04-23T16:45:28.975
-0.211980402469635,1.6347383260726929,-4.157246112823486,-3.6591718196868896,-1.5032901763916016,0.1925790160894394,2024-04-23T16:45:28.995
0.05368778109550476,1.1368229389190674,-4.369324207305908,-0.277676522731781,-1.3304497003555298,0.6885347962379456,2024-04-23T16:45:29.015
-0.09645935893058777,0.6594725847244263,-3.744065284729004,1.708356261253357,0.1625777930021286,1.1171579360961914,2024-04-23T16:45:29.035
-0.34365612268447876,0.24192219972610474,-2.9962291717529297,3.0885848999023438,1.3617826700210571,1.1530678272247314,2024-04-23T16:45:29.055
-0.5493954420089722,0.11723345518112183,-2.2891035079956055,4.606631278991699,1.416517734527588,0.7809643149375916,2024-04-23T16:45:29.075
-0.6421583294868469,0.30728867650032043,-1.4263699054718018,5.792841911315918,0.5172271132469177,0.16056334972381592,2024-04-23T16:45:29.094
-0.3867502808570862,0.5412151217460632,-0.7713088989257812,6.434627532958984,-0.36536911129951477,-0.2594738006591797,2024-04-23T16:45:29.115
-0.1615898311138153,0.6567648649215698,-0.2992820143699646,6.508060455322266,-0.3272669017314911,-0.4034769833087921,2024-04-23T16:45:29.134
-0.06555141508579254,0.7380892038345337,0.10882872343063354,6.17860746383667,0.2105788290500641,-0.3828715980052948,2024-04-23T16:45:29.154
-0.004255473613739014,0.7663731575012207,0.378354012966156,5.804226875305176,0.6180605292320251,-0.2720489203929901,2024-04-23T16:45:29.174
0.015146195888519287,0.8163497447967529,0.640690803527832,5.405956745147705,0.2618640959262848,-0.2919274866580963,2024-04-23T16:45:29.194
0.0696604996919632,0.7427023649215698,0.9368235468864441,4.751533031463623,-0.6831951141357422,-0.49430954456329346,2024-04-23T16:45:29.214
0.17527718842029572,0.6859776973724365,0.9328323006629944,4.104552268981934,-1.0670173168182373,-0.5556297302246094,2024-04-23T16:45:29.234
0.35647815465927124,0.6393907070159912,0.87046879529953,3.400797128677368,-0.727334201335907,-0.282265841960907,2024-04-23T16:45:29.254
0.4019430875778198,0.5862520337104797,0.9114436507225037,2.592522382736206,-0.37038490176200867,0.09643130749464035,2024-04-23T16:45:29.274
0.22196140885353088,0.4556523561477661,0.9030302166938782,1.8138035535812378,-0.32239919900894165,0.14740724861621857,2024-04-23T16:45:29.294
-0.05523739755153656,0.27519911527633667,0.7009750604629517,1.2520979642868042,-0.16127148270606995,-0.11936044692993164,2024-04-23T16:45:29.314
0.049983784556388855,0.21189594268798828,0.6582323312759399,0.8001311421394348,-0.3402543365955353,-0.18648262321949005,2024-04-23T16:45:29.334
0.18194928765296936,0.19193583726882935,0.625103235244751,0.4603174924850464,-0.5723278522491455,-0.022640492767095566,2024-04-23T16:45:29.354
0.13617271184921265,0.16800540685653687,0.5103375911712646,0.13625402748584747,-0.41042450070381165,0.15546731650829315,2024-04-23T16:45:29.374
0.27831795811653137,0.17370522022247314,0.5933993458747864,-0.16195383667945862,-0.8150874376296997,0.337152361869812,2024-04-23T16:45:29.394
-0.19330734014511108,0.02930504083633423,-0.009541153907775879,0.16922827064990997,-1.1561708450317383,0.01329554058611393,2024-04-23T16:45:29.414
0.05166789889335632,0.12264049053192139,0.08854717016220093,0.16437889635562897,-1.3616654872894287,0.08720668405294418,2024-04-23T16:45:29.434
-0.1382046639919281,-0.007912993431091309,-0.19572186470031738,0.1046275794506073,-0.7826020121574402,0.05915673077106476,2024-04-23T16:45:29.454
-0.08645275235176086,-0.07304799556732178,0.1208035945892334,-0.4014420211315155,-0.07881391793489456,0.07347945868968964,2024-04-23T16:45:29.474
-0.1700771450996399,-0.10804867744445801,0.14827346801757812,-0.8020755052566528,0.4135385751724243,-0.026756247505545616,2024-04-23T16:45:29.494
-0.16189855337142944,-0.12388771772384644,-0.013689041137695312,-0.6699880957603455,0.2901139557361603,-0.13367915153503418,2024-04-23T16:45:29.514
0.03338974714279175,-0.043964505195617676,-0.11840128898620605,-0.346841037273407,-0.17999567091464996,-0.06557337939739227,2024-04-23T16:45:29.534
0.06556755304336548,0.006973743438720703,-0.0932735800743103,-0.14236225187778473,-0.3383313715457916,-0.0017447988502681255,2024-04-23T16:45:29.554
0.03561431169509888,-0.004328489303588867,0.0022686123847961426,-0.1507185697555542,-0.2860710322856903,-0.008845090866088867,2024-04-23T16:45:29.574
0.015606135129928589,-0.019416391849517822,0.04309433698654175,-0.2740509510040283,-0.1893784999847412,-0.03650141879916191,2024-04-23T16:45:29.594
-9.763240814208984e-05,-0.03350496292114258,-0.04150223731994629,-0.3238731324672699,-0.04312027618288994,-0.04865555837750435,2024-04-23T16:45:29.614
0.023179084062576294,-0.027815282344818115,-0.13581222295761108,-0.15128333866596222,-0.10387220233678818,-0.009721416048705578,2024-04-23T16:45:29.634
0.0005258917808532715,-0.031984031200408936,-0.12429690361022949,0.04676181450486183,-0.22253400087356567,-0.0013150679878890514,2024-04-23T16:45:29.654
-0.0054204463958740234,-0.03567063808441162,-0.03807199001312256,0.08353802561759949,-0.308296263217926,-0.00668681412935257,2024-04-23T16:45:29.673
0.027289092540740967,-0.017502009868621826,0.0199429988861084,0.056179169565439224,-0.3805992007255554,-0.0006261477246880531,2024-04-23T16:45:29.694
0.022631436586380005,-0.007616519927978516,0.006431400775909424,0.051466070115566254,-0.30347511172294617,-0.0011586369946599007,2024-04-23T16:45:29.714
0.034248173236846924,-0.00803309679031372,0.09692895412445068,-0.0692143514752388,-0.030240604653954506,0.04751487076282501,2024-04-23T16:45:29.733
0.016484171152114868,-0.01642519235610962,0.0320277214050293,-0.14692190289497375,0.06965087354183197,0.07690161466598511,2024-04-23T16:45:29.753
0.008381247520446777,-0.015119314193725586,-0.003367602825164795,-0.11823399364948273,-0.00635126605629921,0.07499934732913971,2024-04-23T16:45:29.773
-0.009127676486968994,-0.012453794479370117,0.030839383602142334,-0.15206918120384216,0.02536538429558277,0.04598580300807953,2024-04-23T16:45:29.793
0.002624833956360817,-0.001641303300857544,0.08879274129867554,-0.14703506231307983,0.023490911349654198,-0.033648326992988586,2024-04-23T16:45:49.294
-0.007217695936560631,-0.01683253049850464,0.04436910152435303,-0.22832036018371582,0.01727554202079773,-0.038982730358839035,2024-04-23T16:45:49.309
0.005106380209326744,-0.02639007568359375,-0.0034208297729492188,-0.17297454178333282,0.0334443598985672,-0.013791915029287338,2024-04-23T16:45:49.329
0.006216781213879585,-0.018530964851379395,-0.0071457624435424805,-0.07418762892484665,0.0017714803107082844,0.003925804048776627,2024-04-23T16:45:49.353
0.000807248055934906,-0.011987626552581787,0.014227569103240967,-0.05465169996023178,-0.03884349390864372,-0.012099362909793854,2024-04-23T16:45:49.369
3.110617399215698e-05,-0.005876004695892334,0.008263647556304932,-0.05637206509709358,-0.06411264836788177,-0.03164961189031601,2024-04-23T16:45:49.389
0.006259843707084656,-0.00036010146141052246,-0.010487973690032959,-0.026149598881602287,-0.06019680202007294,-0.022336218506097794,2024-04-23T16:45:49.409
0.0030848942697048187,0.0064334869384765625,-0.0145835280418396,-0.00970526784658432,-0.024959634989500046,-0.010640483349561691,2024-04-23T16:45:49.429
-0.0060861725360155106,0.010177314281463623,-0.004654526710510254,-0.015571982599794865,0.02157086879014969,-0.008122481405735016,2024-04-23T16:45:49.453
0.004521787166595459,0.0036947131156921387,0.0077509284019470215,-0.020858000963926315,0.012594343163073063,-0.004663030616939068,2024-04-23T16:45:49.470
0.0013832300901412964,0.004296362400054932,0.023458123207092285,-0.025700291618704796,-0.013576178811490536,-0.0073363338597118855,2024-04-23T16:45:49.489
0.002868412062525749,-0.0022185146808624268,0.030654966831207275,-0.020792528986930847,-0.07003980129957199,-0.005444152280688286,2024-04-23T16:45:49.509
0.005022170953452587,0.003052055835723877,0.0496785044670105,-0.02882017195224762,-0.14209184050559998,0.012095659971237183,2024-04-23T16:45:49.529
0.02895307168364525,0.02125486731529236,0.04577070474624634,-0.06648754328489304,-0.11469011008739471,0.04751601815223694,2024-04-23T16:45:49.552
0.025592176243662834,-0.017101287841796875,0.038136065006256104,-0.12178313732147217,0.0084297563880682,-0.00030002370476722717,2024-04-23T16:45:49.570
-0.0014470722526311874,-0.0019554197788238525,0.08797037601470947,-0.3040924668312073,0.1403965801000595,-0.02203536592423916,2024-04-23T16:45:49.589
0.05970294401049614,0.0038490593433380127,0.06605476140975952,-0.40399423241615295,-0.009541680105030537,0.11638975143432617,2024-04-23T16:45:49.609
0.1996799111366272,-0.19599254429340363,-0.07603800296783447,-0.38214585185050964,0.1971476525068283,0.5967978239059448,2024-04-23T16:45:49.629
0.08236916363239288,-0.1498226821422577,0.07453680038452148,-0.6510900259017944,0.033429231494665146,0.8278495669364929,2024-04-23T16:45:49.649
0.0669146329164505,-0.03875252604484558,0.16204875707626343,-0.6919121742248535,-0.21746380627155304,1.1225358247756958,2024-04-23T16:45:49.669
0.033518388867378235,0.022919699549674988,0.09750509262084961,-0.28922489285469055,-0.40590333938598633,1.194818139076233,2024-04-23T16:45:49.689
-0.09686296433210373,0.06655140221118927,0.23547226190567017,-0.21796397864818573,-0.43782731890678406,0.948784589767456,2024-04-23T16:45:49.709
-0.2837142050266266,0.21180306375026703,0.5860426425933838,-1.2657743692398071,-0.2450084239244461,-0.13123595714569092,2024-04-23T16:45:49.729
-0.3820435106754303,0.41773420572280884,0.5847702622413635,-2.487983226776123,0.8292922973632812,-1.300727128982544,2024-04-23T16:45:49.749
-0.3623432219028473,0.40334224700927734,0.40128111839294434,-3.4070470333099365,1.5392813682556152,-2.218883991241455,2024-04-23T16:45:49.769
0.20327414572238922,0.08012458682060242,-0.047319114208221436,-2.7735419273376465,1.693450689315796,-1.3681020736694336,2024-04-23T16:45:49.789
0.3716285824775696,0.19837769865989685,-0.34578877687454224,-1.2091697454452515,1.1004525423049927,0.0591488741338253,2024-04-23T16:45:49.809
0.1414698362350464,0.03480077534914017,-0.37350964546203613,0.038786306977272034,0.38846373558044434,0.3605286180973053,2024-04-23T16:45:49.829
-0.0998309925198555,0.11986760795116425,-0.2503209710121155,0.5119832158088684,-0.499194473028183,-0.13336335122585297,2024-04-23T16:45:49.849
0.08165182918310165,0.029426753520965576,-0.12271183729171753,0.6034829616546631,-0.3235846757888794,-0.0995725467801094,2024-04-23T16:45:49.868
0.09128347784280777,-0.0952179878950119,-0.0490230917930603,0.007272318936884403,-0.0584118589758873,-0.10525892674922943,2024-04-23T16:45:49.889
0.11789453774690628,-0.15491582453250885,-0.3834291100502014,-0.0745227187871933,0.2389472872018814,-0.08453701436519623,2024-04-23T16:45:49.908
0.09685254842042923,-0.005036183632910252,-0.5101138949394226,0.5308550596237183,0.2655813992023468,0.0731339082121849,2024-04-23T16:45:49.928
0.044684723019599915,0.11822977662086487,-0.41775304079055786,1.5011377334594727,0.026056133210659027,0.12806755304336548,2024-04-23T16:45:49.948
0.0696692243218422,0.057321175932884216,-0.20206540822982788,2.043070077896118,-0.5974377393722534,-0.05968981608748436,2024-04-23T16:45:49.968
-0.04549093544483185,-0.008840195834636688,-0.016246259212493896,1.346119999885559,-1.4363954067230225,-0.18143640458583832,2024-04-23T16:45:49.988
-0.023663215339183807,-0.09485957026481628,-0.10410279035568237,0.6587780714035034,-0.9827727675437927,-0.19612295925617218,2024-04-23T16:45:50.008
-0.006782665848731995,-0.003844514489173889,0.06362158060073853,0.33461475372314453,-1.1245352029800415,-0.015851259231567383,2024-04-23T16:45:50.028
0.04027211666107178,0.016999080777168274,0.008107781410217285,0.3007945418357849,-1.1849695444107056,0.37895727157592773,2024-04-23T16:45:50.048
0.04833125323057175,0.011153578758239746,0.16095399856567383,-0.07829824090003967,-1.0341490507125854,0.7054715156555176,2024-04-23T16:45:50.068
0.1755889505147934,-0.022549673914909363,-0.013816773891448975,0.533001720905304,-0.9930819869041443,0.291425496339798,2024-04-23T16:45:50.088
-0.025150328874588013,-0.22505493462085724,0.052224695682525635,0.5244969725608826,-0.5294893383979797,0.04782532900571823,2024-04-23T16:45:50.108
0.08862533420324326,-0.045274510979652405,0.07549363374710083,0.5940104722976685,-0.422387033700943,0.2409101128578186,2024-04-23T16:45:50.128
-0.014223746955394745,0.03969438374042511,0.1237756609916687,0.5166693925857544,-0.37044453620910645,0.23170380294322968,2024-04-23T16:45:50.148
0.006303869187831879,0.038725703954696655,0.18888598680496216,0.27233758568763733,-0.2200600504875183,0.2838633954524994,2024-04-23T16:45:50.168
0.021030008792877197,0.05802534520626068,0.21439611911773682,0.01313737966120243,-0.2377689927816391,0.34866976737976074,2024-04-23T16:45:50.188
0.010441429913043976,0.044756919145584106,0.27802205085754395,-0.17313183844089508,-0.8513635396957397,0.2859319746494293,2024-04-23T16:45:50.208
0.07098327577114105,-0.009557530283927917,0.21340912580490112,-0.2239292860031128,-0.9611591100692749,0.24691225588321686,2024-04-23T16:45:50.228
-0.010494917631149292,0.12279102206230164,0.2657514810562134,-0.374443918466568,-0.7794350981712341,0.02082483470439911,2024-04-23T16:45:50.248
-0.08314840495586395,0.03419838845729828,0.4933319091796875,-0.9347355961799622,-0.37265545129776,-0.24714402854442596,2024-04-23T16:45:50.268
-0.08474579453468323,0.08883371949195862,0.7054459452629089,-1.8907898664474487,0.037902768701314926,-0.3776201605796814,2024-04-23T16:45:50.288
0.09213116765022278,0.15120911598205566,0.6072400808334351,-2.7993714809417725,0.42632555961608887,-0.22085750102996826,2024-04-23T16:45:50.308
-0.20926310122013092,0.13866877555847168,0.6312863230705261,-3.6425106525421143,0.3762655556201935,-0.5683141946792603,2024-04-23T16:45:50.328
0.010313719511032104,0.19262471795082092,0.6360514760017395,-4.127060413360596,-0.7938196063041687,-0.6617188453674316,2024-04-23T16:45:50.348
0.09523966908454895,0.2677777409553528,0.1791430115699768,-3.9946789741516113,-2.2078440189361572,-0.31222549080848694,2024-04-23T16:45:50.368
0.087979257106781,0.2236974984407425,-0.37863099575042725,-3.3550941944122314,-2.1983351707458496,0.013448510318994522,2024-04-23T16:45:50.388
0.06624028086662292,0.08655354380607605,-0.5002825856208801,-3.083184003829956,-1.3375588655471802,0.24913108348846436,2024-04-23T16:45:50.408
-0.1279715895652771,-0.06439277529716492,-0.3146594166755676,-3.6566503047943115,-0.7480818033218384,0.2576599419116974,2024-04-23T16:45:50.427
-0.2684487998485565,-0.07167327404022217,-0.5857475996017456,-3.8016228675842285,-1.4795594215393066,-0.002531286794692278,2024-04-23T16:45:50.447
-0.25005903840065,0.01804068684577942,-1.8292195796966553,-1.8146183490753174,-2.4002525806427,0.01796453446149826,2024-04-23T16:45:50.469
-0.6431344747543335,-0.008929818868637085,-2.446854591369629,0.1920279711484909,-1.8955084085464478,-0.3881160616874695,2024-04-23T16:45:50.487
-0.8734887838363647,0.14332759380340576,-3.236189842224121,2.622575521469116,-0.14663894474506378,-0.8931804299354553,2024-04-23T16:45:50.507
-0.8846160769462585,0.5016583204269409,-3.141362190246582,4.8104143142700195,1.5109641551971436,-1.2195565700531006,2024-04-23T16:45:50.527
-0.7536126375198364,0.993130087852478,-2.5925872325897217,6.7371015548706055,2.5471420288085938,-1.1862597465515137,2024-04-23T16:45:50.548
-0.8755604028701782,1.356003761291504,-1.7096402645111084,7.805307388305664,3.6398003101348877,-1.2784606218338013,2024-04-23T16:45:50.567
-0.8332306146621704,1.8498270511627197,-1.324366807937622,8.977147102355957,4.470739364624023,-1.1772993803024292,2024-04-23T16:45:50.587
-1.0191479921340942,2.3339366912841797,-0.7603228688240051,9.642449378967285,5.114284038543701,-1.0634366273880005,2024-04-23T16:45:50.607
-1.0229921340942383,2.474984645843506,0.15402066707611084,9.621370315551758,4.435580253601074,-1.01027512550354,2024-04-23T16:45:50.627
-0.8608806133270264,2.2971532344818115,0.9804291725158691,9.37414836883545,2.0440011024475098,-1.3282685279846191,2024-04-23T16:45:50.647
-0.6065083146095276,1.9907044172286987,1.65541410446167,8.41157341003418,-0.45000284910202026,-1.96294367313385,2024-04-23T16:45:50.667
-0.04505126178264618,1.9932801723480225,1.908282995223999,6.584569931030273,-0.4313231110572815,-1.6715574264526367,2024-04-23T16:45:50.687
0.3544575273990631,1.9816149473190308,2.4448914527893066,3.8275272846221924,0.6674903035163879,-0.8881970047950745,2024-04-23T16:45:50.707
0.41407254338264465,1.8038661479949951,2.7769277095794678,1.1485388278961182,1.433473825454712,-0.2605285346508026,2024-04-23T16:45:50.727
0.38586264848709106,1.6182793378829956,2.8481602668762207,-0.8759334683418274,0.9310556054115295,0.11382246762514114,2024-04-23T16:45:50.747
0.5891648530960083,1.5873799324035645,2.8545219898223877,-2.642317056655884,-0.5785236954689026,0.7983901500701904,2024-04-23T16:45:50.767
0.29856741428375244,1.49826979637146,2.7160120010375977,-4.4199748039245605,-1.7131797075271606,1.2738115787506104,2024-04-23T16:45:50.787
-0.07134473323822021,1.4492144584655762,2.417915105819702,-6.26383638381958,-2.1620025634765625,1.4845722913742065,2024-04-23T16:45:50.807
-0.27102130651474,1.4616210460662842,2.2330145835876465,-8.442849159240723,-2.496776819229126,1.5760111808776855,2024-04-23T16:45:50.827
-0.5752968192100525,1.6780834197998047,1.964508056640625,-10.94024658203125,-2.709639072418213,1.5246025323867798,2024-04-23T16:45:50.847
-1.0580756664276123,2.0528364181518555,1.3699676990509033,-13.38946533203125,-2.083587169647217,1.0682532787322998,2024-04-23T16:45:50.867
-1.1526384353637695,2.580803632736206,0.7423070073127747,-15.138041496276855,-2.142033576965332,0.46370697021484375,2024-04-23T16:45:50.887
-1.4265047311782837,3.167381763458252,-0.23581194877624512,-14.665568351745605,-3.8798928260803223,-0.2170024961233139,2024-04-23T16:45:50.907
-1.5150123834609985,3.0061686038970947,-1.9972554445266724,-10.984333038330078,-6.347043037414551,-0.6580755710601807,2024-04-23T16:45:50.927
-1.693095088005066,1.7168785333633423,-3.807809591293335,-5.9592156410217285,-6.68638277053833,-1.785536289215088,2024-04-23T16:45:50.947
-1.1023823022842407,1.2047576904296875,-4.576146125793457,-1.7765706777572632,-3.54048490524292,-2.060577630996704,2024-04-23T16:45:50.967
-0.39118629693984985,1.3482879400253296,-3.487110137939453,0.32527485489845276,-1.7479747533798218,-0.9381347298622131,2024-04-23T16:45:50.987
-0.2933058738708496,1.375218391418457,-2.4886858463287354,0.38924163579940796,0.4981590211391449,0.5702869296073914,2024-04-23T16:45:51.007
-0.5870030522346497,0.9899401068687439,-2.5151100158691406,1.329889178276062,1.7727439403533936,1.0799331665039062,2024-04-23T16:45:51.027
-0.8256495594978333,0.7082191109657288,-2.91176176071167,3.8604543209075928,2.1155550479888916,0.7032665014266968,2024-04-23T16:45:51.047
-1.0202534198760986,0.7447558641433716,-2.469050884246826,6.259049415588379,1.771789312362671,-0.0883200615644455,2024-04-23T16:45:51.067
-1.0355931520462036,1.0934314727783203,-1.8938651084899902,7.7534708976745605,1.9085930585861206,-0.6471288204193115,2024-04-23T16:45:51.087
-1.0006109476089478,1.4649600982666016,-1.544138789176941,8.465507507324219,2.9201772212982178,-0.8739296793937683,2024-04-23T16:45:51.107
-1.0106831789016724,1.7742875814437866,-1.5128841400146484,9.213550567626953,4.201188564300537,-0.8193758726119995,2024-04-23T16:45:51.127
-1.2053364515304565,2.1927309036254883,-1.3619434833526611,10.604278564453125,4.375244617462158,-0.9146512150764465,2024-04-23T16:45:51.146
-1.4595670700073242,2.6095423698425293,-0.7094393372535706,11.556549072265625,3.6271591186523438,-1.4090536832809448,2024-04-23T16:45:51.166
-1.4033820629119873,2.677922487258911,0.31900835037231445,11.26150131225586,2.3860340118408203,-2.292675495147705,2024-04-23T16:45:51.186
-0.9926754236221313,2.473708152770996,0.9189150333404541,10.088542938232422,1.6577011346817017,-2.889359951019287,2024-04-23T16:45:51.206
-0.3699045181274414,2.4000253677368164,1.174163579940796,8.382499694824219,2.0353245735168457,-2.462191581726074,2024-04-23T16:45:51.226
-0.1133894994854927,2.247011661529541,1.279899001121521,6.74917459487915,2.5818023681640625,-1.6646870374679565,2024-04-23T16:45:51.246
-0.26475027203559875,1.9839084148406982,1.6221290826797485,5.179107666015625,2.296652317047119,-1.5042742490768433,2024-04-23T16:45:51.266
-0.05598779022693634,1.708517074584961,1.8806545734405518,3.7783782482147217,1.475935697555542,-1.3429539203643799,2024-04-23T16:45:51.286
0.15695451200008392,1.633142113685608,2.1221542358398438,2.1050961017608643,0.6679640412330627,-1.0044386386871338,2024-04-23T16:45:51.306
0.3296562433242798,1.6297686100006104,2.2039170265197754,0.14927224814891815,0.5498017072677612,-0.40017926692962646,2024-04-23T16:45:51.326
0.44478458166122437,1.5671210289001465,2.2441601753234863,-1.6987332105636597,0.2420942634344101,0.2743316888809204,2024-04-23T16:45:51.346
0.2961789071559906,1.4477171897888184,2.1184675693511963,-3.1349706649780273,-0.3728047013282776,0.65765380859375,2024-04-23T16:45:51.366
0.14399784803390503,1.4031184911727905,2.0015461444854736,-4.316636562347412,-1.189744234085083,0.9422691464424133,2024-04-23T16:45:51.386
0.051812201738357544,1.4169325828552246,1.799655795097351,-5.392876625061035,-1.7760305404663086,1.3029338121414185,2024-04-23T16:45:51.406
-0.26370179653167725,1.4149078130722046,1.7595385313034058,-6.985128879547119,-1.9527888298034668,1.2991232872009277,2024-04-23T16:45:51.426
