ax,ay,az,gx,gy,gz,timestamp
-3.3200724124908447,-0.6581276059150696,3.0071358680725098,-1.323192834854126,2.9525704383850098,-0.5145798921585083,2024-06-17T21:49:04.111
-3.0161492824554443,-0.13249844312667847,3.2498464584350586,-2.3563668727874756,1.0841203927993774,-2.095287322998047,2024-06-17T21:49:04.131
-2.621643304824829,0.23838841915130615,3.2882697582244873,-3.4908833503723145,-0.4671463966369629,-3.5514299869537354,2024-06-17T21:49:04.151
-2.1560938358306885,0.6530959010124207,3.639491081237793,-5.851741790771484,-1.3872003555297852,-4.568966865539551,2024-06-17T21:49:04.171
-1.5994620323181152,1.4501020908355713,3.327610492706299,-9.105610847473145,-2.3948276042938232,-5.3109636306762695,2024-06-17T21:49:04.191
-0.9486984014511108,2.3378188610076904,1.585473895072937,-10.978832244873047,-3.3462259769439697,-5.528079986572266,2024-06-17T21:49:04.211
-0.4324038028717041,3.3494350910186768,-1.2102015018463135,-10.743982315063477,-4.915464878082275,-4.979523181915283,2024-06-17T21:49:04.231
0.2900211215019226,3.0422122478485107,-4.976153373718262,-6.089447975158691,-4.907321453094482,-3.9621851444244385,2024-06-17T21:49:04.251
1.2488818168640137,2.168229579925537,-5.403541088104248,-0.7952461242675781,-3.8918769359588623,-1.9738342761993408,2024-06-17T21:49:04.271
1.3054120540618896,1.4561145305633545,-3.795278549194336,1.3967971801757812,-1.5340018272399902,0.25636306405067444,2024-06-17T21:49:04.291
0.24100828170776367,0.6847538948059082,-2.208336591720581,1.514906644821167,0.7484921813011169,0.835155725479126,2024-06-17T21:49:04.311
0.016771018505096436,0.24424174427986145,-1.4095758199691772,1.6834826469421387,0.592197060585022,0.0058553507551550865,2024-06-17T21:49:04.331
0.4307522177696228,0.19375047087669373,-1.0197796821594238,2.5717201232910156,-0.1161363497376442,0.07325856387615204,2024-06-17T21:49:04.351
0.34889572858810425,0.10265597701072693,-0.4498768448829651,2.904067039489746,-0.10675173252820969,0.4370359182357788,2024-06-17T21:49:04.371
0.135583758354187,0.03570002317428589,-0.0995287299156189,2.4883203506469727,0.20865383744239807,0.7466416954994202,2024-06-17T21:49:04.391
-0.14120221138000488,-0.1419525146484375,-0.06591939926147461,1.8540810346603394,0.5074353814125061,0.9138849377632141,2024-06-17T21:49:04.411
-0.4347471594810486,-0.3773103356361389,-0.35744887590408325,1.6288608312606812,0.2284729778766632,0.7692468762397766,2024-06-17T21:49:04.431
-0.6973844766616821,-0.4989733099937439,-0.7945457696914673,2.377793550491333,0.10552869737148285,0.6089699864387512,2024-06-17T21:49:04.451
-1.0608351230621338,-0.5728685855865479,-0.8515652418136597,3.4348254203796387,-0.04677741602063179,0.173008993268013,2024-06-17T21:49:04.471
-1.4130454063415527,-0.5540724396705627,-0.6173332333564758,4.422557830810547,-0.3006223738193512,-0.7449307441711426,2024-06-17T21:49:04.491
-1.4278161525726318,-0.4927847385406494,-0.14156216382980347,4.831360816955566,-0.8967694044113159,-2.008152484893799,2024-06-17T21:49:04.511
-1.1760329008102417,-0.2770729660987854,0.13965070247650146,4.637391090393066,-1.4104042053222656,-2.97617769241333,2024-06-17T21:49:04.531
-1.023620367050171,-0.09161108732223511,0.24671758711338043,4.081824779510498,-1.5936254262924194,-3.644606351852417,2024-06-17T21:49:04.551
-0.985431969165802,0.0520859956741333,0.23908346891403198,3.5668323040008545,-1.3983018398284912,-4.389394760131836,2024-06-17T21:49:04.571
-0.8482768535614014,0.3049202561378479,0.26661789417266846,3.1135659217834473,-0.9656561613082886,-5.01974630355835,2024-06-17T21:49:04.590
-0.5901944637298584,0.5981490015983582,0.4397772550582886,2.5114083290100098,-0.5944939255714417,-5.43241548538208,2024-06-17T21:49:04.610
-0.29376649856567383,0.8761774897575378,0.625428318977356,1.7416373491287231,-0.44239985942840576,-5.533306121826172,2024-06-17T21:49:04.630
0.03999893367290497,1.2406033277511597,0.8151228427886963,0.6424046158790588,-0.6542216539382935,-5.181360721588135,2024-06-17T21:49:04.650
0.19774013757705688,1.4136419296264648,0.8240185976028442,-0.6848624348640442,-1.0465377569198608,-4.833880424499512,2024-06-17T21:49:04.670
0.3141499161720276,1.629424810409546,0.6318624019622803,-2.0977697372436523,-0.412478506565094,-4.4094109535217285,2024-06-17T21:49:04.690
0.4951746463775635,2.039949655532837,0.2965121269226074,-3.4114394187927246,1.2945538759231567,-4.169908046722412,2024-06-17T21:49:04.710
1.5088653564453125,2.535536527633667,-0.5046402812004089,-3.356121778488159,2.4844319820404053,-3.576443910598755,2024-06-17T21:49:04.730
3.2661690711975098,3.132399082183838,-0.9575817584991455,-2.0867726802825928,1.5466135740280151,-0.8210114240646362,2024-06-17T21:49:04.750
4.212550163269043,3.555708885192871,-1.5975124835968018,-0.24474148452281952,-0.20619286596775055,3.516022205352783,2024-06-17T21:49:04.770
3.544135570526123,4.026529788970947,-1.776085615158081,0.5659379363059998,0.41139402985572815,8.011399269104004,2024-06-17T21:49:04.790
1.6169922351837158,4.153593063354492,-1.4877557754516602,-0.45378485321998596,2.333395481109619,10.757349014282227,2024-06-17T21:49:04.810
-0.5020637512207031,3.8223910331726074,-1.7890315055847168,-0.8620194792747498,3.0290563106536865,11.32026481628418,2024-06-17T21:49:04.830
-2.9122045040130615,2.6432881355285645,-2.334803581237793,1.6210778951644897,2.9979207515716553,9.77077579498291,2024-06-17T21:49:04.850
-3.9863314628601074,1.5886818170547485,-0.7766402959823608,3.398059368133545,3.1490561962127686,7.913331508636475,2024-06-17T21:49:04.870
-4.845500469207764,0.32651668787002563,1.0883618593215942,3.5169382095336914,2.397085428237915,6.110708713531494,2024-06-17T21:49:04.890
-5.3267316818237305,-1.1929805278778076,2.2729649543762207,4.220702171325684,-0.08022687584161758,2.7141177654266357,2024-06-17T21:49:04.910
-4.5254225730896,-1.0976872444152832,3.9090700149536133,3.3293144702911377,-2.1698083877563477,-0.4444979131221771,2024-06-17T21:49:04.930
-2.736323118209839,-0.201332688331604,5.355696201324463,-1.3137562274932861,-2.2812352180480957,-2.3478012084960938,2024-06-17T21:49:04.950
-1.0604453086853027,0.8694105744361877,4.808850288391113,-7.148131847381592,-1.7692033052444458,-2.5235543251037598,2024-06-17T21:49:04.970
-0.0848151445388794,1.667035698890686,3.4624691009521484,-12.00170612335205,-1.0716111660003662,-2.417188882827759,2024-06-17T21:49:04.990
0.11532610654830933,3.149045705795288,0.06878562271595001,-13.333701133728027,-2.743135690689087,-1.9204741716384888,2024-06-17T21:49:05.010
0.049314022064208984,2.657048225402832,-4.224271297454834,-7.219940662384033,-3.36537766456604,-0.7231184244155884,2024-06-17T21:49:05.030
-0.009819984436035156,1.3253250122070312,-4.172894477844238,-2.4508473873138428,-3.441572427749634,-0.3986036777496338,2024-06-17T21:49:05.050
0.2761821150779724,0.5067703127861023,-3.118077039718628,-1.0973892211914062,-1.682267189025879,0.2432730346918106,2024-06-17T21:49:05.070
0.15131103992462158,-0.003945112228393555,-2.5501034259796143,-0.531067967414856,0.03505312278866768,0.48817718029022217,2024-06-17T21:49:05.090
0.08845680952072144,-0.2040635347366333,-1.9168150424957275,0.6814293265342712,0.361425518989563,0.26925334334373474,2024-06-17T21:49:05.110
0.1432018280029297,-0.24699628353118896,-1.006245732307434,1.4602926969528198,0.213949516415596,0.12091517448425293,2024-06-17T21:49:05.130
0.1613803505897522,-0.26506507396698,-0.22630715370178223,1.3970024585723877,0.17196427285671234,0.09465264528989792,2024-06-17T21:49:05.149
0.17474204301834106,-0.2508199214935303,0.09833472967147827,1.128854751586914,0.029617611318826675,0.02018655091524124,2024-06-17T21:49:05.169
0.1780780553817749,-0.18029260635375977,0.26972532272338867,0.8079594373703003,-0.05948292091488838,-0.04549514874815941,2024-06-17T21:49:05.189
0.23139286041259766,-0.10587632656097412,0.25439783930778503,0.46727454662323,0.027513695880770683,-0.08474638313055038,2024-06-17T21:49:05.209
0.31784480810165405,0.012595891952514648,0.14350387454032898,0.4635619521141052,-0.17267630994319916,0.1024710163474083,2024-06-17T21:49:05.229
0.1911313533782959,0.013356149196624756,0.08191242814064026,0.6111010909080505,-0.36352378129959106,0.32209715247154236,2024-06-17T21:49:05.249
-0.0243607759475708,-0.04866290092468262,0.10281133651733398,0.3228563666343689,-0.027003809809684753,0.3935450613498688,2024-06-17T21:49:05.269
-0.11715251207351685,-0.17949485778808594,-0.03663967549800873,-0.25462934374809265,0.48009321093559265,0.572944164276123,2024-06-17T21:49:05.289
-0.3228796720504761,-0.3282086253166199,-0.4269885718822479,-0.2894998788833618,0.6110385060310364,0.7060350179672241,2024-06-17T21:49:05.309
-0.7925171256065369,-0.5461289882659912,-0.6207101345062256,0.29469043016433716,0.43015626072883606,0.49884232878685,2024-06-17T21:49:05.329
-1.1382240056991577,-0.8104480504989624,-0.7777482271194458,0.9324358701705933,0.0030048361513763666,-0.09024612605571747,2024-06-17T21:49:05.349
-1.3578461408615112,-0.8463329076766968,-0.9723818898200989,2.0330734252929688,-0.2383449226617813,-0.6530776023864746,2024-06-17T21:49:05.369
-1.5842523574829102,-0.8160458207130432,-0.7836472988128662,2.9586029052734375,-0.5316680073738098,-1.4586654901504517,2024-06-17T21:49:05.389
-1.6426752805709839,-0.6492313146591187,-0.4783303737640381,3.370004415512085,-0.6320695877075195,-2.5317256450653076,2024-06-17T21:49:05.409
-1.3685729503631592,-0.3040517568588257,-0.24704515933990479,3.433746337890625,-0.783501923084259,-3.3000895977020264,2024-06-17T21:49:05.429
-1.2053929567337036,-0.04296422004699707,-0.0744583010673523,3.352343797683716,-1.042548656463623,-4.060216426849365,2024-06-17T21:49:05.449
-0.9555245041847229,0.2318684458732605,0.10274350643157959,3.047896385192871,-1.350351095199585,-4.732128620147705,2024-06-17T21:49:05.469
-0.7051030993461609,0.542534351348877,0.1732327938079834,2.6503138542175293,-1.3172065019607544,-5.251619338989258,2024-06-17T21:49:05.489
-0.44964665174484253,0.8845399022102356,0.29858481884002686,2.2643580436706543,-1.2549681663513184,-5.62502384185791,2024-06-17T21:49:05.509
-0.14712193608283997,1.1734538078308105,0.5002845525741577,1.6155681610107422,-1.6594041585922241,-5.789527893066406,2024-06-17T21:49:05.529
0.14653758704662323,1.4157660007476807,0.6582061052322388,0.5530549883842468,-2.5725371837615967,-5.577653408050537,2024-06-17T21:49:05.549
0.4020986557006836,1.6530365943908691,0.5316842794418335,-0.8108867406845093,-2.1083688735961914,-4.833291530609131,2024-06-17T21:49:05.569
0.7132497429847717,1.8539695739746094,0.22878333926200867,-2.162000894546509,-0.5335276126861572,-3.919970750808716,2024-06-17T21:49:05.589
1.4523333311080933,2.2500267028808594,-0.05320228636264801,-3.1738641262054443,1.300337553024292,-2.697162389755249,2024-06-17T21:49:05.609
2.817843437194824,2.7361528873443604,-0.8620537519454956,-3.318556308746338,1.8002362251281738,-0.3804544508457184,2024-06-17T21:49:05.629
3.505293130874634,2.9736528396606445,-1.9273005723953247,-1.2419137954711914,0.5469090342521667,2.6060826778411865,2024-06-17T21:49:05.649
3.4278337955474854,3.3046257495880127,-2.245591878890991,0.8584750890731812,-0.31718599796295166,5.89219856262207,2024-06-17T21:49:05.669
2.1583306789398193,3.5869479179382324,-2.260535955429077,0.9461407661437988,1.3470962047576904,8.781274795532227,2024-06-17T21:49:05.689
0.2076403796672821,3.2490358352661133,-2.4611992835998535,0.4201541543006897,3.9291040897369385,9.689504623413086,2024-06-17T21:49:05.708
-1.3629486560821533,2.812457799911499,-2.896178960800171,2.3292407989501953,4.722533702850342,9.448302268981934,2024-06-17T21:49:05.729
-3.1101534366607666,2.016728162765503,-1.5431621074676514,4.733840465545654,3.901622772216797,8.13840389251709,2024-06-17T21:49:05.748
-4.23900842666626,1.143540382385254,0.41284453868865967,5.10854959487915,4.1152262687683105,5.721803665161133,2024-06-17T21:49:05.769
-3.6076698303222656,0.8352739214897156,2.2554593086242676,4.0555100440979,2.8602447509765625,3.9010133743286133,2024-06-17T21:49:05.789
-3.1422572135925293,0.26989543437957764,3.479973316192627,2.5805504322052,0.37907785177230835,2.3318915367126465,2024-06-17T21:49:05.808
-2.310551166534424,0.363625168800354,4.072054386138916,0.4641415476799011,-0.39417555928230286,0.7999342083930969,2024-06-17T21:49:05.828
-1.3910179138183594,0.5067641139030457,4.706721782684326,-2.6330411434173584,-0.6016191244125366,0.5373939275741577,2024-06-17T21:49:05.848
-1.1741302013397217,0.6785869598388672,4.547757625579834,-6.454269886016846,-2.1640589237213135,-0.1293257176876068,2024-06-17T21:49:05.868
-0.8912285566329956,1.0887744426727295,3.467860221862793,-10.831064224243164,-2.613612413406372,-0.1688283383846283,2024-06-17T21:49:05.889
-1.5071558952331543,2.671729326248169,0.15941238403320312,-13.741287231445312,-1.4913372993469238,-0.48858147859573364,2024-06-17T21:49:05.908
-1.2221181392669678,2.079770088195801,-4.274557113647461,-8.425971031188965,-0.8425290584564209,-0.6395030617713928,2024-06-17T21:49:05.928
-0.864433228969574,0.9273276329040527,-4.079404830932617,-3.3255271911621094,-2.043473243713379,-1.0466634035110474,2024-06-17T21:49:05.948
-0.22150468826293945,0.3014528751373291,-2.9577019214630127,-1.6803478002548218,-1.0685776472091675,-0.6505860090255737,2024-06-17T21:49:05.968
-0.19810009002685547,-0.05028584599494934,-2.2248363494873047,-1.4244112968444824,0.9027737379074097,-0.5983724594116211,2024-06-17T21:49:05.988
0.18510544300079346,-0.04226189851760864,-1.7994836568832397,-0.6336326003074646,1.6574361324310303,-0.6905190944671631,2024-06-17T21:49:06.008
0.45785969495773315,-0.025274813175201416,-1.0729947090148926,0.1458926498889923,1.325535774230957,-0.6497645974159241,2024-06-17T21:49:06.028
0.5058769583702087,-0.035572052001953125,-0.3769563138484955,0.2940901815891266,0.6924476623535156,-0.6740841269493103,2024-06-17T21:49:06.048
0.4963458180427551,-0.004608511924743652,-0.20355531573295593,0.20095477998256683,0.43296775221824646,-0.7388070821762085,2024-06-17T21:49:06.068
0.5545809864997864,0.08298236131668091,-0.23203769326210022,0.2848483622074127,0.8986635208129883,-0.4355446398258209,2024-06-17T21:49:06.088
0.6274423003196716,0.09391671419143677,-0.033155232667922974,-0.08133287727832794,1.6532608270645142,0.27320006489753723,2024-06-17T21:49:06.108
0.5150892734527588,0.05834400653839111,0.05744025111198425,-0.573454737663269,1.7894996404647827,0.8963724374771118,2024-06-17T21:49:06.128
0.18129920959472656,-0.009590089321136475,-0.10008800029754639,-0.7051499485969543,1.0961803197860718,1.0644876956939697,2024-06-17T21:49:06.148
-0.21899938583374023,-0.20396846532821655,-0.36822593212127686,-0.3445684611797333,0.5051166415214539,0.8946231007575989,2024-06-17T21:49:06.168
-0.4771658778190613,-0.3425357937812805,-0.5103684663772583,0.19961783289909363,0.6189965009689331,1.0586384534835815,2024-06-17T21:49:06.188
-0.6488248109817505,-0.6301637887954712,-0.6309579610824585,0.5447747707366943,0.5287220478057861,1.0714070796966553,2024-06-17T21:49:06.208
-1.059122920036316,-0.669631838798523,-0.6638170480728149,1.0842474699020386,1.2304221391677856,0.645179271697998,2024-06-17T21:49:06.228
-1.2266417741775513,-0.591781735420227,-0.4870772361755371,1.582202434539795,1.6390655040740967,0.23374535143375397,2024-06-17T21:49:06.248
-1.1830825805664062,-0.5366251468658447,-0.3350524306297302,1.7686097621917725,1.4974522590637207,-0.27218300104141235,2024-06-17T21:49:06.268
-1.285246729850769,-0.5110442042350769,-0.29398542642593384,1.9441770315170288,1.538942575454712,-0.9185164570808411,2024-06-17T21:49:06.288
-1.2221226692199707,-0.4734574556350708,-0.2554907202720642,2.306792974472046,1.0431946516036987,-1.5425119400024414,2024-06-17T21:49:06.308
-1.4633288383483887,-0.1536305546760559,-0.3337295949459076,2.874643087387085,0.05367489159107208,-2.6485085487365723,2024-06-17T21:49:06.328
-1.1743898391723633,-0.14923715591430664,-0.34963876008987427,3.5951545238494873,-1.0228934288024902,-3.7795326709747314,2024-06-17T21:49:06.347
-0.9718157649040222,0.012452960014343262,-0.46506431698799133,4.604487895965576,-2.792501926422119,-4.46296501159668,2024-06-17T21:49:06.367
-1.0387318134307861,0.3095356225967407,-0.17445707321166992,4.856499195098877,-3.458402633666992,-5.6515374183654785,2024-06-17T21:49:06.388
-0.6485692262649536,0.6951529383659363,0.14981240034103394,4.120242118835449,-2.739285945892334,-6.413397789001465,2024-06-17T21:49:06.407
0.03725752234458923,1.0390043258666992,0.6591707468032837,2.182307481765747,-1.835875153541565,-5.835636615753174,2024-06-17T21:49:06.427
0.0889563113451004,1.1044930219650269,0.6992028951644897,0.6825353503227234,-1.7558069229125977,-5.422841548919678,2024-06-17T21:49:06.447
0.06509546935558319,1.3393802642822266,0.5791020393371582,-0.4131321907043457,-2.006516218185425,-5.274831771850586,2024-06-17T21:49:06.467
0.26258328557014465,1.630855679512024,0.32204389572143555,-1.3537503480911255,-1.3173264265060425,-4.967474460601807,2024-06-17T21:49:06.487
0.7990545034408569,2.081299304962158,0.04954337701201439,-2.0272634029388428,-0.006414702162146568,-4.187778949737549,2024-06-17T21:49:06.507
1.9626240730285645,2.69492506980896,-0.351836621761322,-2.3368120193481445,0.8455460071563721,-2.3898510932922363,2024-06-17T21:49:06.527
2.980889320373535,3.00924015045166,-0.9005126357078552,-1.9761818647384644,0.48182299733161926,0.21348948776721954,2024-06-17T21:49:06.547
3.5637829303741455,3.303809881210327,-1.711453914642334,-0.9851109385490417,0.29141825437545776,3.458956718444824,2024-06-17T21:49:06.567
3.110665798187256,3.756863594055176,-2.1883912086486816,-0.3451453149318695,0.8987619280815125,6.866249084472656,2024-06-17T21:49:06.587
1.5409339666366577,3.9794771671295166,-2.5876994132995605,0.7622792720794678,1.9267675876617432,9.01687240600586,2024-06-17T21:49:06.607
0.10834923386573792,3.9859352111816406,-2.429271697998047,2.374713897705078,2.945056676864624,10.0188570022583,2024-06-17T21:49:06.627
-1.3907588720321655,3.5770461559295654,-1.1574218273162842,3.8609375953674316,3.208282947540283,10.439061164855957,2024-06-17T21:49:06.647
-3.074559450149536,2.511545419692993,0.7186146378517151,3.555286407470703,2.4520387649536133,9.866157531738281,2024-06-17T21:49:06.667
-4.489497184753418,1.2352280616760254,1.8783711194992065,2.61008358001709,1.2211918830871582,7.917512893676758,2024-06-17T21:49:06.687
-4.817071437835693,0.04017221927642822,2.7112700939178467,1.0259284973144531,1.7263211011886597,4.983073711395264,2024-06-17T21:49:06.707
-4.290672779083252,-0.6967261433601379,3.4559226036071777,-0.7896589040756226,2.0991241931915283,2.6637983322143555,2024-06-17T21:49:06.727
-4.128008842468262,-0.9580289721488953,4.208156585693359,-2.717517137527466,0.6780143976211548,-0.5151925683021545,2024-06-17T21:49:06.747
-3.1682376861572266,-0.12142083048820496,4.838559150695801,-6.658448219299316,-0.11488045006990433,-3.139044761657715,2024-06-17T21:49:06.767
-1.5127735137939453,1.3183661699295044,3.8395652770996094,-10.835648536682129,-0.10931091010570526,-4.02207088470459,2024-06-17T21:49:06.787
-0.5792673826217651,2.1855101585388184,0.977070689201355,-11.388303756713867,-1.8306339979171753,-3.8692214488983154,2024-06-17T21:49:06.807
-0.8080674409866333,2.4933223724365234,-1.6809395551681519,-8.755922317504883,-5.324666976928711,-4.048500061035156,2024-06-17T21:49:06.827
-0.4465327858924866,2.4817259311676025,-3.8304824829101562,-5.265848636627197,-6.143385887145996,-3.086311101913452,2024-06-17T21:49:06.847
0.2565339207649231,1.6969969272613525,-4.440189361572266,-1.9179681539535522,-2.8001298904418945,-0.9163323640823364,2024-06-17T21:49:06.867
0.24950915575027466,0.8378739356994629,-3.18900203704834,-0.1509077399969101,0.4764620065689087,0.4530102014541626,2024-06-17T21:49:06.887
-0.013012230396270752,0.15858697891235352,-1.7769649028778076,0.44622373580932617,1.1153676509857178,0.29973211884498596,2024-06-17T21:49:06.906
0.16325050592422485,-0.05763065814971924,-0.9603661298751831,0.7741222977638245,-0.2999782860279083,-0.17698517441749573,2024-06-17T21:49:06.926
0.39421576261520386,-0.1094895601272583,-0.6750677824020386,1.3389980792999268,-1.5537161827087402,-0.16653303802013397,2024-06-17T21:49:06.946
0.32528167963027954,-0.17732185125350952,-0.375968337059021,1.356519103050232,-1.4398843050003052,-0.05121183022856712,2024-06-17T21:49:06.966
0.3711685538291931,-0.1385354995727539,-0.13772456347942352,0.8288201689720154,-0.358290433883667,0.2563256621360779,2024-06-17T21:49:06.986
0.38518279790878296,-0.09060502052307129,0.012844160199165344,0.1109061911702156,0.4747089445590973,0.639592170715332,2024-06-17T21:49:07.006
0.2902184724807739,-0.05560040473937988,-0.03486061096191406,-0.3102901875972748,0.4039677381515503,0.8468690514564514,2024-06-17T21:49:07.026
0.057596445083618164,0.00367012619972229,-0.45020830631256104,0.05789872258901596,-0.46519479155540466,0.8505362272262573,2024-06-17T21:49:07.046
-0.17777442932128906,-0.05312022566795349,-0.8210881352424622,0.9626132249832153,-0.8359929323196411,0.8372949361801147,2024-06-17T21:49:07.066
-0.4439955949783325,-0.16109606623649597,-0.8839486241340637,1.6173114776611328,-0.30828410387039185,0.8663262724876404,2024-06-17T21:49:07.086
-0.8052822947502136,-0.2568901777267456,-0.8887380957603455,2.2572340965270996,0.43012240529060364,0.7972299456596375,2024-06-17T21:49:07.106
-1.2190723419189453,-0.37948763370513916,-0.7099073529243469,2.909074544906616,0.7101303339004517,0.23878490924835205,2024-06-17T21:49:07.126
-1.4761412143707275,-0.4046286642551422,-0.44406700134277344,3.3298230171203613,0.8120352029800415,-0.8206189870834351,2024-06-17T21:49:07.146
-1.334902048110962,-0.33760398626327515,-0.2279834747314453,3.693458080291748,0.5355018973350525,-1.8251028060913086,2024-06-17T21:49:07.166
-1.0225200653076172,-0.18657410144805908,0.045964956283569336,4.012914657592773,-0.07385429739952087,-2.481581449508667,2024-06-17T21:49:07.186
-0.7485032677650452,-0.10344278812408447,0.3083285093307495,4.021157264709473,-0.7991949319839478,-2.947387218475342,2024-06-17T21:49:07.206
-0.5922417640686035,-0.015612423419952393,0.5336023569107056,3.46881103515625,-1.2251290082931519,-3.3705637454986572,2024-06-17T21:49:07.226
-0.4124065041542053,0.028638601303100586,0.5829652547836304,2.6091551780700684,-1.0323233604431152,-3.617682933807373,2024-06-17T21:49:07.246
-0.23223847150802612,0.10816138982772827,0.6113266944885254,1.8328170776367188,-0.6854492425918579,-3.6840286254882812,2024-06-17T21:49:07.266
-0.06768375635147095,0.19717884063720703,0.6203193664550781,1.300007700920105,-0.7457320690155029,-3.642418384552002,2024-06-17T21:49:07.286
-0.022927522659301758,0.27261894941329956,0.6455618143081665,0.8330682516098022,-1.2428462505340576,-3.6568381786346436,2024-06-17T21:49:07.306
-0.04544821381568909,0.3974660038948059,0.5910793542861938,0.3160899579524994,-1.6761832237243652,-3.699617862701416,2024-06-17T21:49:07.326
-0.14078962802886963,0.5132243633270264,0.48475468158721924,-0.2091270238161087,-1.7973060607910156,-3.736917018890381,2024-06-17T21:49:07.346
-0.21606427431106567,0.5912890434265137,0.27440086007118225,-0.5005584359169006,-1.6980373859405518,-3.7209789752960205,2024-06-17T21:49:07.366
-0.4090341329574585,0.7048772573471069,0.11465254426002502,-0.5191376209259033,-1.6078895330429077,-4.096386909484863,2024-06-17T21:49:07.385
-0.26298099756240845,1.0730690956115723,0.2259291112422943,-1.0971683263778687,-1.4982956647872925,-4.379655838012695,2024-06-17T21:49:07.405
0.2803270220756531,1.4962468147277832,0.11064693331718445,-2.0580241680145264,-0.9249895215034485,-3.7702786922454834,2024-06-17T21:49:07.425
0.8826107382774353,1.8048133850097656,-0.044808611273765564,-3.3257741928100586,0.08358503133058548,-2.4018399715423584,2024-06-17T21:49:07.446
1.3620142936706543,1.958937406539917,-0.7522157430648804,-3.9867613315582275,0.650831937789917,-1.195381760597229,2024-06-17T21:49:07.465
2.012840986251831,2.0732789039611816,-2.048710584640503,-2.420440435409546,0.020868191495537758,0.280564546585083,2024-06-17T21:49:07.485
2.3449954986572266,2.1541292667388916,-2.8537557125091553,0.7917526960372925,-0.7223725318908691,2.315434694290161,2024-06-17T21:49:07.506
2.045091152191162,2.3264782428741455,-2.7019619941711426,2.7324607372283936,0.318015456199646,4.574549674987793,2024-06-17T21:49:07.525
1.097068190574646,2.3886265754699707,-2.3803224563598633,2.9645345211029053,3.1472532749176025,6.661380290985107,2024-06-17T21:49:07.545
-0.3455951511859894,2.178306818008423,-2.3817715644836426,3.0251078605651855,5.607604503631592,7.4137864112854,2024-06-17T21:49:07.565
-1.6028486490249634,1.8944278955459595,-1.9115486145019531,4.149674415588379,6.295446872711182,6.675594806671143,2024-06-17T21:49:07.585
-2.2045323848724365,1.6887147426605225,-0.3152899742126465,4.988040924072266,5.243896484375,5.874907970428467,2024-06-17T21:49:07.605
-2.3433234691619873,1.2587394714355469,1.6267497539520264,4.511063098907471,3.6316447257995605,5.4820780754089355,2024-06-17T21:49:07.625
-2.776979923248291,0.9530158638954163,2.832427501678467,3.708603858947754,2.3544490337371826,4.432934761047363,2024-06-17T21:49:07.645
-2.7214035987854004,0.4823838472366333,4.050235748291016,2.5000340938568115,1.3611170053482056,3.0564634799957275,2024-06-17T21:49:07.665
-2.647651195526123,0.2334361970424652,5.206205368041992,0.3314815163612366,-0.47538840770721436,1.1727564334869385,2024-06-17T21:49:07.685
-1.5680532455444336,0.791419506072998,6.18519926071167,-5.607668876647949,-0.874330997467041,-0.1801716536283493,2024-06-17T21:49:07.705
-0.41670894622802734,2.0324525833129883,4.94160795211792,-12.152939796447754,-0.5420495867729187,0.00015840167179703712,2024-06-17T21:49:07.725
-0.6327816843986511,3.5245392322540283,2.2545876502990723,-15.843623161315918,-3.0631136894226074,-0.1928018182516098,2024-06-17T21:49:07.745
-1.0843585729599,3.1489810943603516,-4.222043991088867,-9.45416259765625,-5.866164207458496,0.18396049737930298,2024-06-17T21:49:07.765
-1.2121949195861816,1.6795694828033447,-4.970856189727783,-3.3568050861358643,-5.488691806793213,0.70598304271698,2024-06-17T21:49:07.785
-1.0136125087738037,0.6237496137619019,-3.646712303161621,-2.1797306537628174,-1.1538375616073608,1.41645085811615,2024-06-17T21:49:07.805
-1.1252663135528564,-0.20280638337135315,-2.8773064613342285,-1.4862167835235596,1.0277982950210571,0.8055884838104248,2024-06-17T21:49:07.825
-0.5835453271865845,-0.4091058075428009,-2.013552665710449,-0.186198428273201,0.3604651689529419,0.050182193517684937,2024-06-17T21:49:07.845
-0.1609593629837036,-0.41849812865257263,-1.1977568864822388,0.5501438975334167,-0.15897856652736664,-0.1510336548089981,2024-06-17T21:49:07.865
-0.02185279130935669,-0.3921092748641968,-0.6266469955444336,0.6028660535812378,0.14819970726966858,-0.28359755873680115,2024-06-17T21:49:07.885
0.18969488143920898,-0.265318900346756,-0.27517169713974,0.41565966606140137,0.577272891998291,-0.2607380151748657,2024-06-17T21:49:07.905
0.3684464693069458,-0.14293426275253296,-0.07885592430830002,0.1331116110086441,0.7837703824043274,-0.03265403211116791,2024-06-17T21:49:07.925
0.36525577306747437,-0.0707818865776062,-0.11700492352247238,0.07412327080965042,0.6161403059959412,0.19198369979858398,2024-06-17T21:49:07.945
0.25269871950149536,-0.007056504487991333,-0.15527129173278809,0.1017378568649292,0.1948447972536087,0.3888530433177948,2024-06-17T21:49:07.965
0.08673381805419922,0.022730916738510132,-0.3238345980644226,0.19938154518604279,0.008573653176426888,0.6201052665710449,2024-06-17T21:49:07.984
-0.2441030740737915,-0.02809181809425354,-0.530576229095459,0.4189593195915222,0.2295311689376831,0.7471776008605957,2024-06-17T21:49:08.005
-0.5764793157577515,-0.11564996838569641,-0.7580205202102661,1.0733251571655273,0.6391130685806274,0.7049285173416138,2024-06-17T21:49:08.024
-0.9171717762947083,-0.21892303228378296,-0.6604170203208923,1.8098869323730469,1.0673915147781372,0.5007929801940918,2024-06-17T21:49:08.044
-1.236652135848999,-0.37924841046333313,-0.441184401512146,2.2960293292999268,1.3898398876190186,-0.009447701275348663,2024-06-17T21:49:08.064
-1.3951455354690552,-0.42311540246009827,-0.16499900817871094,2.4802260398864746,1.3085497617721558,-0.7775596976280212,2024-06-17T21:49:08.084
-1.3672759532928467,-0.419927716255188,-0.014609694480895996,2.5293216705322266,0.8836693167686462,-1.6787707805633545,2024-06-17T21:49:08.105
-1.131941556930542,-0.2621893882751465,0.03988415002822876,2.71596622467041,0.45491915941238403,-2.4654300212860107,2024-06-17T21:49:08.124
-0.8016126155853271,-0.0940898060798645,0.13398313522338867,2.855508804321289,-0.06705867499113083,-2.976405143737793,2024-06-17T21:49:08.144
-0.551331102848053,0.04865783452987671,0.24410605430603027,2.820345640182495,-0.4614361524581909,-3.2102601528167725,2024-06-17T21:49:08.164
-0.4240673780441284,0.11422502994537354,0.34098386764526367,2.457336187362671,-0.683381199836731,-3.4003183841705322,2024-06-17T21:49:08.184
-0.32741403579711914,0.1458926796913147,0.33376502990722656,1.9937291145324707,-0.7386548519134521,-3.582886219024658,2024-06-17T21:49:08.204
-0.17945748567581177,0.19554364681243896,0.2855031490325928,1.7726645469665527,-0.7645808458328247,-3.675092935562134,2024-06-17T21:49:08.224
-0.07067471742630005,0.26596611738204956,0.3611947298049927,1.4547297954559326,-0.9895330667495728,-3.673938512802124,2024-06-17T21:49:08.244
-0.0570182204246521,0.29186946153640747,0.4017132520675659,0.9548443555831909,-1.2541570663452148,-3.6434683799743652,2024-06-17T21:49:08.264
-0.12076118588447571,0.3342002034187317,0.3697013854980469,0.44149869680404663,-1.2797030210494995,-3.6742160320281982,2024-06-17T21:49:08.284
-0.15787753462791443,0.40284889936447144,0.32117441296577454,0.038849469274282455,-1.1551052331924438,-3.816366195678711,2024-06-17T21:49:08.304
-0.1472577154636383,0.5232933759689331,0.3531149923801422,-0.42995768785476685,-0.9065273404121399,-4.012913227081299,2024-06-17T21:49:08.324
-0.06404724717140198,0.7367052435874939,0.42926251888275146,-1.1384350061416626,-0.7454023957252502,-4.147439479827881,2024-06-17T21:49:08.344
0.09131576120853424,0.9947121739387512,0.43122684955596924,-1.8889333009719849,-0.5607996582984924,-4.029745101928711,2024-06-17T21:49:08.364
0.2334916591644287,1.1865437030792236,0.3313661813735962,-2.4843201637268066,-0.41236546635627747,-3.743614673614502,2024-06-17T21:49:08.384
0.41706857085227966,1.4737112522125244,0.17767880856990814,-2.8073201179504395,-0.12324564158916473,-3.380178213119507,2024-06-17T21:49:08.404
0.7575265765190125,1.8757076263427734,-0.10348915308713913,-2.6596100330352783,-0.1097073033452034,-2.8618412017822266,2024-06-17T21:49:08.424
1.5697917938232422,2.356480121612549,-0.41878509521484375,-2.194345474243164,-1.0222355127334595,-1.7103768587112427,2024-06-17T21:49:08.444
2.632857084274292,2.9811453819274902,-1.110674262046814,-2.044173002243042,-1.5874755382537842,0.4112555682659149,2024-06-17T21:49:08.464
3.3873441219329834,3.518754482269287,-2.4471685886383057,-0.782334566116333,-1.524106502532959,3.812483787536621,2024-06-17T21:49:08.484
3.0494492053985596,4.124513149261475,-3.6360557079315186,1.8878498077392578,0.6726934909820557,8.003576278686523,2024-06-17T21:49:08.504
1.3854637145996094,4.786379814147949,-3.398261785507202,3.3128116130828857,4.557081699371338,11.676939964294434,2024-06-17T21:49:08.524
-0.9595868587493896,4.591402530670166,-2.3669028282165527,2.8064210414886475,7.713088512420654,13.246245384216309,2024-06-17T21:49:08.544
-3.35117769241333,3.389401435852051,-1.101752758026123,2.7929394245147705,6.5010085105896,12.181428909301758,2024-06-17T21:49:08.564
-5.285057067871094,1.5916740894317627,0.349847674369812,3.0876505374908447,3.065089225769043,8.866836547851562,2024-06-17T21:49:08.584
-5.580709934234619,0.40693411231040955,1.5677162408828735,2.6450607776641846,2.3394298553466797,5.656351089477539,2024-06-17T21:49:08.603
-5.060279369354248,-0.5890105962753296,3.215433359146118,0.44395625591278076,3.0998265743255615,3.2853591442108154,2024-06-17T21:49:08.624
-5.057917594909668,-1.1386607885360718,3.858142852783203,-1.5310344696044922,2.070385217666626,0.33766987919807434,2024-06-17T21:49:08.643
-4.620362758636475,-0.6780761480331421,4.539155960083008,-3.6706480979919434,0.22857628762722015,-3.4308743476867676,2024-06-17T21:49:08.663
-2.6785573959350586,0.9891917705535889,4.706453323364258,-7.47661018371582,-0.23700611293315887,-5.249797821044922,2024-06-17T21:49:08.683
-0.8340190649032593,2.0148532390594482,3.5136098861694336,-10.908709526062012,-1.4009758234024048,-5.15562105178833,2024-06-17T21:49:08.703
-0.47710782289505005,2.7215168476104736,0.5805661678314209,-11.071327209472656,-4.268577575683594,-5.112698554992676,2024-06-17T21:49:08.723
-0.024602830410003662,3.276992082595825,-2.9965980052948,-8.342011451721191,-6.6369147300720215,-3.8186886310577393,2024-06-17T21:49:08.743
0.46300965547561646,2.5165605545043945,-5.204404830932617,-3.912916898727417,-4.2014970779418945,-1.1592957973480225,2024-06-17T21:49:08.763
0.3714621067047119,1.405505657196045,-4.83355712890625,0.16343778371810913,-0.8400124907493591,0.7295467257499695,2024-06-17T21:49:08.783
-0.25703728199005127,0.4813627302646637,-2.589305877685547,1.4723917245864868,0.9038748145103455,0.6854137778282166,2024-06-17T21:49:08.803
-0.05331474542617798,-0.0110207200050354,-1.2368042469024658,1.5775012969970703,0.4485064744949341,-0.06294357031583786,2024-06-17T21:49:08.823
0.3361485004425049,-0.10693162679672241,-0.6019926071166992,1.8993371725082397,-0.7639990448951721,-0.1307230293750763,2024-06-17T21:49:08.843
0.24498414993286133,-0.17729389667510986,-0.19842830300331116,1.686728835105896,-0.8320412039756775,-0.16925765573978424,2024-06-17T21:49:08.863
0.2896575927734375,-0.1178387999534607,-0.04101908206939697,1.1098989248275757,0.022082051262259483,-0.07508271932601929,2024-06-17T21:49:08.883
0.3501039743423462,-0.06570348143577576,-0.007421582937240601,0.6295352578163147,0.4820888638496399,0.14247065782546997,2024-06-17T21:49:08.903
0.23072028160095215,-0.10038489103317261,-0.0720277726650238,0.3965875804424286,0.3377418518066406,0.2841947376728058,2024-06-17T21:49:08.923
-0.07144337892532349,-0.16083231568336487,-0.35342705249786377,0.5867090821266174,-0.31600460410118103,0.21378087997436523,2024-06-17T21:49:08.943
-0.3347891569137573,-0.2540532648563385,-0.6319287419319153,1.1219007968902588,-0.1242247149348259,0.13654570281505585,2024-06-17T21:49:08.963
-0.6169472932815552,-0.341309517621994,-0.5801698565483093,1.4770374298095703,0.5582874417304993,0.002841574838384986,2024-06-17T21:49:08.983
-0.787267804145813,-0.3662930727005005,-0.4360258877277374,1.7958189249038696,0.7122516632080078,-0.11120443046092987,2024-06-17T21:49:09.003
-1.0351492166519165,-0.4304150342941284,-0.36943379044532776,2.1834864616394043,0.32205846905708313,-0.4845168888568878,2024-06-17T21:49:09.023
-1.227982521057129,-0.4706289768218994,-0.3374171257019043,2.658879280090332,-0.2218114286661148,-1.301311731338501,2024-06-17T21:49:09.043
-1.1245479583740234,-0.3878781795501709,-0.14431071281433105,2.8285765647888184,-0.5412346124649048,-2.127532720565796,2024-06-17T21:49:09.063
-0.8778648376464844,-0.23560935258865356,-0.09919440746307373,2.867572546005249,-0.6130836009979248,-2.601957321166992,2024-06-17T21:49:09.082
-0.7283255457878113,-0.13546514511108398,-0.04520249366760254,3.1268928050994873,-0.8774033188819885,-2.918783187866211,2024-06-17T21:49:09.103
-0.6362220644950867,-0.06795734167098999,0.13447082042694092,3.206449031829834,-1.3732123374938965,-3.271853446960449,2024-06-17T21:49:09.122
-0.5218095183372498,-0.01882326602935791,0.27358686923980713,2.9191017150878906,-1.7642717361450195,-3.660501480102539,2024-06-17T21:49:09.143
-0.45287126302719116,0.08219581842422485,0.3666645288467407,2.5199849605560303,-1.9375638961791992,-4.04102087020874,2024-06-17T21:49:09.162
-0.3234611749649048,0.3034897446632385,0.47915196418762207,1.901381492614746,-2.067777156829834,-4.373481273651123,2024-06-17T21:49:09.182
-0.09501421451568604,0.5436521768569946,0.5913150310516357,0.9643167853355408,-2.0033693313598633,-4.489819049835205,2024-06-17T21:49:09.203
0.11814045906066895,0.8355749249458313,0.7020924091339111,-0.4694264531135559,-1.5910691022872925,-4.39736795425415,2024-06-17T21:49:09.222
0.2428339719772339,1.113455057144165,0.6509068012237549,-2.0186667442321777,-0.900205135345459,-4.1905717849731445,2024-06-17T21:49:09.242
0.4500123858451843,1.3945050239562988,0.46130096912384033,-3.1188652515411377,-0.38894206285476685,-3.8173439502716064,2024-06-17T21:49:09.262
0.5768547654151917,1.5618634223937988,-0.03178881108760834,-3.2560205459594727,-0.21159784495830536,-3.5121257305145264,2024-06-17T21:49:09.282
0.9810934662818909,1.8668699264526367,-0.566264271736145,-2.683666467666626,-0.10469907522201538,-3.0488131046295166,2024-06-17T21:49:09.302
1.9049742221832275,2.3054070472717285,-1.0365917682647705,-1.6553226709365845,-0.2371981292963028,-1.7310824394226074,2024-06-17T21:49:09.322
2.997521162033081,2.7791709899902344,-1.4429206848144531,-0.8691417574882507,-0.7871363162994385,0.8558793067932129,2024-06-17T21:49:09.342
3.415126085281372,3.1209001541137695,-2.2915561199188232,-0.49369537830352783,-0.25652220845222473,4.203454971313477,2024-06-17T21:49:09.362
2.8030247688293457,3.5943565368652344,-3.478475332260132,0.030757447704672813,2.252946615219116,7.6273322105407715,2024-06-17T21:49:09.382
1.150842308998108,4.093092918395996,-4.322112560272217,1.7690948247909546,4.852907180786133,10.118224143981934,2024-06-17T21:49:09.402
-0.6949392557144165,4.186256408691406,-3.724886417388916,4.161563396453857,6.4643964767456055,11.136116027832031,2024-06-17T21:49:09.422
-2.683015823364258,3.64205265045166,-1.456713318824768,5.299347877502441,6.419012546539307,10.988931655883789,2024-06-17T21:49:09.442
-4.5414323806762695,2.3776659965515137,1.1026883125305176,4.772109031677246,3.793649911880493,8.890769958496094,2024-06-17T21:49:09.462
-5.131414413452148,1.321716070175171,2.503598213195801,3.861234664916992,2.513864755630493,6.470022678375244,2024-06-17T21:49:09.482
-5.00182580947876,0.13040012121200562,3.915694236755371,1.5615103244781494,2.836667776107788,4.006187915802002,2024-06-17T21:49:09.502
-5.096256732940674,-0.7387333512306213,4.779317855834961,-0.7958455681800842,1.6827311515808105,0.34356415271759033,2024-06-17T21:49:09.522
-3.843242645263672,-0.21505272388458252,5.4273362159729,-4.056814670562744,-0.8210769891738892,-3.033928155899048,2024-06-17T21:49:09.542
-1.9208532571792603,1.223676323890686,5.005009651184082,-8.553093910217285,-0.9259089231491089,-3.7328450679779053,2024-06-17T21:49:09.562
-0.694456934928894,2.287867307662964,3.202655076980591,-12.07258129119873,-0.320218563079834,-3.1689295768737793,2024-06-17T21:49:09.582
-0.8928119540214539,3.157304525375366,0.04789605736732483,-11.764663696289062,-2.4765071868896484,-3.459733009338379,2024-06-17T21:49:09.602
-0.5104436874389648,3.0720670223236084,-3.07907772064209,-8.098706245422363,-5.2449259757995605,-3.2483327388763428,2024-06-17T21:49:09.622
0.2240903377532959,2.2260820865631104,-4.463190078735352,-3.9714856147766113,-5.154858112335205,-1.601070523262024,2024-06-17T21:49:09.642
0.5150802731513977,1.3751047849655151,-4.251430511474609,-1.294358253479004,-2.248861312866211,0.5216920375823975,2024-06-17T21:49:09.662
0.03163182735443115,0.6426289081573486,-3.2618753910064697,0.31169551610946655,0.22159059345722198,1.4313879013061523,2024-06-17T21:49:09.682
-0.26925134658813477,0.07924434542655945,-2.0266404151916504,1.2739125490188599,0.6528564095497131,0.9370004534721375,2024-06-17T21:49:09.701
-0.028592586517333984,-0.13389310240745544,-1.099403977394104,1.7411233186721802,-0.10223952680826187,0.3248191773891449,2024-06-17T21:49:09.721
0.18825900554656982,-0.20409590005874634,-0.47519081830978394,1.793632984161377,-0.6786380410194397,0.23369422554969788,2024-06-17T21:49:09.741
0.1527377963066101,-0.2527324855327606,-0.20386426150798798,1.4488627910614014,-0.38855209946632385,0.3062577545642853,2024-06-17T21:49:09.761
0.05088388919830322,-0.24062156677246094,-0.09548723697662354,0.9773766994476318,0.17522239685058594,0.44046446681022644,2024-06-17T21:49:09.782
-0.09034508466720581,-0.24937334656715393,-0.13237743079662323,0.7149227261543274,0.4457068145275116,0.49202510714530945,2024-06-17T21:49:09.801
-0.3365568518638611,-0.2720036208629608,-0.21865110099315643,0.7882025241851807,0.3010823428630829,0.38307493925094604,2024-06-17T21:49:09.821
-0.5485446453094482,-0.29247474670410156,-0.35018444061279297,0.9852669835090637,0.28773099184036255,0.1766688972711563,2024-06-17T21:49:09.841
-0.706753671169281,-0.32425007224082947,-0.5254654884338379,1.423825979232788,0.4237267076969147,-0.035934675484895706,2024-06-17T21:49:09.861
-0.853437602519989,-0.34514206647872925,-0.6590120792388916,2.3347723484039307,0.12767523527145386,-0.32522156834602356,2024-06-17T21:49:09.881
-0.9826655983924866,-0.2730814516544342,-0.6571207046508789,3.6113579273223877,-0.6883190274238586,-0.6865724325180054,2024-06-17T21:49:09.901
-1.1879725456237793,-0.13564446568489075,-0.48326045274734497,4.772241115570068,-1.1799428462982178,-1.3293044567108154,2024-06-17T21:49:09.921
-1.0567986965179443,-0.11267411708831787,-0.07968664169311523,5.10178279876709,-1.6209183931350708,-2.10386061668396,2024-06-17T21:49:09.941
-0.818021297454834,0.07616215944290161,0.1811598539352417,4.863099575042725,-2.130535125732422,-2.610748291015625,2024-06-17T21:49:09.961
-0.7067165374755859,0.08100426197052002,0.4195091724395752,4.073216438293457,-2.4980013370513916,-3.1598875522613525,2024-06-17T21:49:09.981
-0.5526939630508423,0.20866018533706665,0.5064374208450317,2.8728272914886475,-2.4066789150238037,-3.626481056213379,2024-06-17T21:49:10.001
-0.30832815170288086,0.2576426863670349,0.44126707315444946,2.0328266620635986,-1.8158267736434937,-3.8009774684906006,2024-06-17T21:49:10.021
-0.08197665214538574,0.37098991870880127,0.5459492206573486,1.3169769048690796,-1.3905302286148071,-3.8054797649383545,2024-06-17T21:49:10.041
0.08779335021972656,0.4801110625267029,0.6349678039550781,0.48407265543937683,-1.3067362308502197,-3.735630989074707,2024-06-17T21:49:10.061
0.14578711986541748,0.6050414443016052,0.6362261176109314,-0.4690497815608978,-1.4877985715866089,-3.703864812850952,2024-06-17T21:49:10.081
0.15960204601287842,0.6860984563827515,0.4702514111995697,-1.202576756477356,-1.6717188358306885,-3.7529869079589844,2024-06-17T21:49:10.101
0.21990132331848145,0.7592793703079224,0.30085575580596924,-1.685858964920044,-1.7466684579849243,-3.7880306243896484,2024-06-17T21:49:10.121
0.30510303378105164,0.8487196564674377,0.20135238766670227,-2.069082498550415,-1.7552536725997925,-3.686351776123047,2024-06-17T21:49:10.141
0.3244859576225281,0.8775752782821655,-0.03252989053726196,-2.137608766555786,-1.909912109375,-3.5066888332366943,2024-06-17T21:49:10.161
0.2814279794692993,0.9104042053222656,-0.07918456196784973,-2.1614339351654053,-1.7766387462615967,-3.304471254348755,2024-06-17T21:49:10.181
0.3061778247356415,1.0012240409851074,-0.14045408368110657,-2.401571035385132,-1.159169316291809,-3.039790153503418,2024-06-17T21:49:10.201
0.454698383808136,1.1063735485076904,-0.18613165616989136,-2.6946301460266113,-0.35009482502937317,-2.6096889972686768,2024-06-17T21:49:10.221
0.582449734210968,1.2050210237503052,-0.236871600151062,-3.1709465980529785,0.15074673295021057,-2.200751304626465,2024-06-17T21:49:10.241
0.8466300964355469,1.3101698160171509,-0.5818585157394409,-3.272207498550415,0.18054799735546112,-1.8058767318725586,2024-06-17T21:49:10.261
1.37567138671875,1.603933334350586,-1.0674266815185547,-2.9313151836395264,-0.3608799874782562,-0.9542399644851685,2024-06-17T21:49:10.280
1.878408432006836,1.8383718729019165,-1.7970880270004272,-1.5449472665786743,-1.5230247974395752,0.8922820091247559,2024-06-17T21:49:10.300
1.8624478578567505,2.0164191722869873,-2.5210764408111572,0.23964843153953552,-1.4707778692245483,3.240699291229248,2024-06-17T21:49:10.321
1.3075814247131348,2.2251791954040527,-3.2084803581237793,1.7611908912658691,0.9312740564346313,5.519160270690918,2024-06-17T21:49:10.341
0.25498372316360474,2.387537956237793,-3.5927340984344482,2.8277180194854736,4.743499755859375,7.218533515930176,2024-06-17T21:49:10.361
-1.1256178617477417,2.45220685005188,-3.401003360748291,3.881878614425659,7.913778781890869,7.494821071624756,2024-06-17T21:49:10.380
-1.7601847648620605,2.5104496479034424,-2.08988618850708,5.029343128204346,7.978991508483887,7.095316410064697,2024-06-17T21:49:10.400
-2.117164373397827,2.4010567665100098,0.05352318286895752,5.4644083976745605,5.414491653442383,7.0056304931640625,2024-06-17T21:49:10.421
-2.8675718307495117,1.8723032474517822,2.003389835357666,4.821753978729248,2.6292617321014404,6.484302997589111,2024-06-17T21:49:10.440
-3.311908721923828,1.173694133758545,3.1737942695617676,2.9881224632263184,3.571159601211548,5.043044090270996,2024-06-17T21:49:10.460
-2.9718422889709473,0.442448228597641,4.445630073547363,0.2800416648387909,4.255989074707031,3.965071678161621,2024-06-17T21:49:10.480
-3.436936855316162,-0.04286929965019226,4.853307247161865,-1.3374630212783813,2.64044451713562,2.0676677227020264,2024-06-17T21:49:10.500
-3.520514965057373,-0.23820626735687256,6.363864898681641,-4.746401786804199,-0.009121954441070557,-1.0026400089263916,2024-06-17T21:49:10.520
-2.386115789413452,1.3816337585449219,6.844747066497803,-11.70893383026123,-0.5492400527000427,-2.8166871070861816,2024-06-17T21:49:10.540
-1.3480939865112305,3.9275593757629395,4.32472038269043,-17.343557357788086,-0.9723566770553589,-3.6574904918670654,2024-06-17T21:49:10.560
-1.0999815464019775,4.780397891998291,-2.0974817276000977,-14.217594146728516,-5.066545009613037,-3.902333974838257,2024-06-17T21:49:10.580
-1.097895622253418,3.8936896324157715,-6.434112071990967,-6.4146552085876465,-7.068099021911621,-3.19744610786438,2024-06-17T21:49:10.600
-0.2100631594657898,2.4402518272399902,-6.635824680328369,-0.6966760158538818,-3.9616870880126953,-1.1018909215927124,2024-06-17T21:49:10.620
-0.1784067153930664,1.2486894130706787,-4.671299934387207,2.1015784740448,-0.11785201728343964,0.7662076354026794,2024-06-17T21:49:10.640
-0.7950589656829834,0.06423905491828918,-2.299457550048828,2.0180823802948,1.7648271322250366,0.15869635343551636,2024-06-17T21:49:10.660
-0.2210010290145874,-0.19153016805648804,-1.2861474752426147,2.6217386722564697,0.3079291582107544,-0.6460792422294617,2024-06-17T21:49:10.679
0.22312527894973755,-0.18387910723686218,-0.46518802642822266,2.907860279083252,-1.220298409461975,-0.7761300802230835,2024-06-17T21:49:10.700
0.2861737608909607,-0.24757841229438782,-0.03705340623855591,2.4216246604919434,-1.1024495363235474,-0.7790849804878235,2024-06-17T21:49:10.720
0.6169865131378174,-0.19696548581123352,0.36152148246765137,1.1597874164581299,0.48291024565696716,-0.3154468238353729,2024-06-17T21:49:10.740
0.7870787978172302,-0.0716484785079956,0.6791192889213562,-0.5928948521614075,2.159700632095337,0.4623710811138153,2024-06-17T21:49:10.760
0.7266337275505066,0.023174822330474854,0.3768896460533142,-1.519339680671692,2.4773693084716797,0.9086866974830627,2024-06-17T21:49:10.780
0.6611039638519287,0.13167333602905273,-0.06710533797740936,-1.1156965494155884,1.4624484777450562,1.14369797706604,2024-06-17T21:49:10.800
0.5476473569869995,0.16612309217453003,-0.3827565312385559,0.06294857710599899,0.24641002714633942,1.4728047847747803,2024-06-17T21:49:10.820
0.16298681497573853,0.21496626734733582,-0.40223655104637146,0.8989576101303101,-0.19744546711444855,1.7433617115020752,2024-06-17T21:49:10.839
-0.24655675888061523,0.1195937991142273,-0.5266321301460266,1.3572578430175781,-0.223268523812294,1.7890344858169556,2024-06-17T21:49:10.860
-0.6319361925125122,0.014781922101974487,-0.626689076423645,1.935229778289795,0.11902783066034317,1.8550646305084229,2024-06-17T21:49:10.879
-1.151688575744629,-0.23431169986724854,-0.4886661171913147,2.305481433868408,0.7211925983428955,1.4594670534133911,2024-06-17T21:49:10.899
-1.4659746885299683,-0.42637506127357483,-0.2170739769935608,2.4435505867004395,0.9612410664558411,0.5704330205917358,2024-06-17T21:49:10.919
-1.508375883102417,-0.546241283416748,0.10630977153778076,2.5603432655334473,0.3776651918888092,-0.5546581745147705,2024-06-17T21:49:10.939
-1.3284077644348145,-0.4718128442764282,0.20126086473464966,2.6951842308044434,-0.4909985363483429,-1.4424923658370972,2024-06-17T21:49:10.959
-1.112899899482727,-0.39039865136146545,0.2838454842567444,2.7079885005950928,-0.9246038794517517,-2.0968384742736816,2024-06-17T21:49:10.979
-0.8771886229515076,-0.2461736500263214,0.39712202548980713,2.3432741165161133,-1.0805469751358032,-2.5212502479553223,2024-06-17T21:49:10.999
-0.6903991103172302,-0.12384539842605591,0.4165090322494507,1.843169927597046,-1.1040843725204468,-2.767381429672241,2024-06-17T21:49:11.019
-0.5886676907539368,-0.04609179496765137,0.33547449111938477,1.518537998199463,-1.2324213981628418,-2.9626224040985107,2024-06-17T21:49:11.039
-0.5125637650489807,0.03945183753967285,0.2365245819091797,1.3983755111694336,-1.4178293943405151,-3.2038817405700684,2024-06-17T21:49:11.059
-0.3992425203323364,0.15721851587295532,0.1950829029083252,1.2869236469268799,-1.6936945915222168,-3.3751375675201416,2024-06-17T21:49:11.079
-0.28927695751190186,0.2525297999382019,0.15839004516601562,1.1091903448104858,-1.7232128381729126,-3.4133453369140625,2024-06-17T21:49:11.099
-0.22426766157150269,0.34347623586654663,0.1686014086008072,0.7956020832061768,-1.7060757875442505,-3.3620102405548096,2024-06-17T21:49:11.119
-0.23472684621810913,0.36221563816070557,0.1858733743429184,0.4185211956501007,-1.7100220918655396,-3.3505613803863525,2024-06-17T21:49:11.139
-0.28646838665008545,0.3981894850730896,0.22484585642814636,-0.12680333852767944,-1.5582342147827148,-3.4846482276916504,2024-06-17T21:49:11.159
-0.3379167914390564,0.4588802456855774,0.14409911632537842,-0.6558840870857239,-1.314900517463684,-3.7939460277557373,2024-06-17T21:49:11.179
-0.2938840985298157,0.6277841329574585,0.0561203807592392,-1.0181907415390015,-1.059517741203308,-4.106339454650879,2024-06-17T21:49:11.199
-0.1707579791545868,0.8295649290084839,0.02154099941253662,-1.3078609704971313,-0.8119009733200073,-4.314851760864258,2024-06-17T21:49:11.219
-0.005084097385406494,1.0200064182281494,0.05004286766052246,-1.7409963607788086,-0.4857827126979828,-4.313885688781738,2024-06-17T21:49:11.239
0.18003356456756592,1.217045545578003,0.050147414207458496,-2.222487449645996,-0.17010396718978882,-4.248382568359375,2024-06-17T21:49:11.259
0.4281077980995178,1.4752404689788818,-0.040105462074279785,-2.401986598968506,-0.29395756125450134,-4.1823344230651855,2024-06-17T21:49:11.279
1.0759367942810059,2.01509165763855,-0.2548201084136963,-2.4436933994293213,-0.5967136025428772,-3.582926034927368,2024-06-17T21:49:11.299
2.3217239379882812,2.6251754760742188,-0.7899606823921204,-2.583782196044922,-0.873504102230072,-1.683280110359192,2024-06-17T21:49:11.319
3.5039212703704834,3.070228338241577,-2.0528595447540283,-1.8987627029418945,-0.7143039107322693,1.6616923809051514,2024-06-17T21:49:11.339
3.8197429180145264,3.4541850090026855,-3.633629083633423,0.5161828398704529,0.2813275158405304,5.683359622955322,2024-06-17T21:49:11.359
2.709146738052368,4.092573165893555,-4.051844596862793,2.921844959259033,3.2213330268859863,9.409903526306152,2024-06-17T21:49:11.379
0.5118768215179443,4.559535503387451,-3.022447347640991,3.3322694301605225,6.139177322387695,11.718149185180664,2024-06-17T21:49:11.399
-1.8346824645996094,4.040670394897461,-1.8427590131759644,3.5736894607543945,5.7517781257629395,11.5189790725708,2024-06-17T21:49:11.419
-3.7710516452789307,2.820730447769165,-0.6985241770744324,5.242883205413818,2.906980276107788,10.210334777832031,2024-06-17T21:49:11.439
-5.57570219039917,1.1405420303344727,1.0065510272979736,5.457176685333252,3.3809008598327637,6.968578815460205,2024-06-17T21:49:11.459
-5.269152641296387,2.7954578399658203e-05,3.1948769092559814,3.040884017944336,4.0848588943481445,3.888774871826172,2024-06-17T21:49:11.479
-4.481324195861816,-0.8059874773025513,3.9478514194488525,0.33958449959754944,3.3474199771881104,1.38932466506958,2024-06-17T21:49:11.498
-3.696650743484497,-0.6763660907745361,4.266801834106445,-1.7832516431808472,1.6110750436782837,-1.3641490936279297,2024-06-17T21:49:11.519
-2.2188069820404053,0.35229000449180603,4.429750919342041,-4.837924957275391,0.3468492925167084,-2.9613049030303955,2024-06-17T21:49:11.538
-0.9479401707649231,1.4287409782409668,3.4135782718658447,-7.4688286781311035,-0.1380089968442917,-3.048091173171997,2024-06-17T21:49:11.558
-0.3224126100540161,1.8236825466156006,1.9785529375076294,-8.096529006958008,-1.7232975959777832,-2.5307767391204834,2024-06-17T21:49:11.578
-0.2775307297706604,1.9206962585449219,0.3846483826637268,-8.13327693939209,-3.183645486831665,-2.037607192993164,2024-06-17T21:49:11.598
-0.16278600692749023,1.7735196352005005,-1.2852222919464111,-7.20636510848999,-3.969264268875122,-1.392267107963562,2024-06-17T21:49:11.618
-0.15498614311218262,1.6068730354309082,-2.505260944366455,-5.394736289978027,-3.9022164344787598,-0.2579762935638428,2024-06-17T21:49:11.638
-0.4722833037376404,0.9814218282699585,-2.895780563354492,-3.526564836502075,-2.290133237838745,0.3379441201686859,2024-06-17T21:49:11.658
-0.40934324264526367,0.4131495952606201,-2.7315826416015625,-1.8318179845809937,-1.010022759437561,0.23672357201576233,2024-06-17T21:49:11.678
-0.07840251922607422,0.045988529920578,-2.193429946899414,-0.37899333238601685,-0.4331218898296356,0.17919263243675232,2024-06-17T21:49:11.698
0.06635457277297974,-0.1765153408050537,-1.4589922428131104,0.027779437601566315,-0.22491352260112762,0.055732518434524536,2024-06-17T21:49:11.718
0.12994426488876343,-0.17362481355667114,-1.1480720043182373,0.16686654090881348,-0.44233545660972595,-0.003730667755007744,2024-06-17T21:49:11.738
0.06878077983856201,-0.1286575198173523,-1.1714122295379639,0.6346957087516785,-0.6685065627098083,-0.05332578346133232,2024-06-17T21:49:11.758
0.08122211694717407,-0.06702089309692383,-1.154547095298767,1.3146154880523682,-0.6003825664520264,-0.007646337617188692,2024-06-17T21:49:11.778
0.04647469520568848,-0.01671937108039856,-0.9514486789703369,1.8048895597457886,-0.35732221603393555,0.250226765871048,2024-06-17T21:49:11.798
-0.22822272777557373,-0.07892224192619324,-0.8282134532928467,2.2274434566497803,-0.1664198786020279,0.37998396158218384,2024-06-17T21:49:11.818
-0.5674327611923218,-0.15173205733299255,-0.7478036880493164,2.755523920059204,-0.255891889333725,0.31826138496398926,2024-06-17T21:49:11.838
-0.9907721877098083,-0.25671514868736267,-0.6568956971168518,3.411844253540039,-0.17663541436195374,-0.056135524064302444,2024-06-17T21:49:11.858
-1.365617275238037,-0.351380854845047,-0.34415769577026367,3.7521109580993652,-0.1336083710193634,-1.0109562873840332,2024-06-17T21:49:11.878
-1.3502349853515625,-0.2872839570045471,-0.006879344582557678,3.8580830097198486,-0.34150201082229614,-2.1370694637298584,2024-06-17T21:49:11.898
-0.9675741195678711,-0.1356314718723297,0.21381717920303345,3.926211357116699,-0.7825510501861572,-2.813903331756592,2024-06-17T21:49:11.918
-0.6662161350250244,0.02227795124053955,0.43321216106414795,3.8154637813568115,-1.1181635856628418,-3.224686622619629,2024-06-17T21:49:11.938
-0.38771992921829224,0.1441017985343933,0.6445920467376709,3.1071701049804688,-1.1414692401885986,-3.5226778984069824,2024-06-17T21:49:11.958
-0.06283891201019287,0.2721204161643982,0.7240886688232422,2.032353639602661,-0.9145529270172119,-3.6545445919036865,2024-06-17T21:49:11.977
0.2791086435317993,0.3864445090293884,0.588157057762146,1.2502096891403198,-0.8627068400382996,-3.478733777999878,2024-06-17T21:49:11.997
0.5661881566047668,0.4712868332862854,0.4694164991378784,1.0224593877792358,-1.1960347890853882,-2.8437812328338623,2024-06-17T21:49:12.017
0.5561109185218811,0.4183853268623352,0.44045984745025635,0.8571978211402893,-1.737539529800415,-2.255120277404785,2024-06-17T21:49:12.037
0.349067747592926,0.3927934765815735,0.3608729839324951,0.6044320464134216,-1.886068344116211,-1.9648010730743408,2024-06-17T21:49:12.057
0.13870519399642944,0.338309109210968,0.36260148882865906,0.1390848159790039,-1.7492420673370361,-1.9936134815216064,2024-06-17T21:49:12.077
0.05140647292137146,0.37456536293029785,0.33729368448257446,-0.4601045548915863,-1.4486557245254517,-2.083482503890991,2024-06-17T21:49:12.097
-0.0720210075378418,0.343461275100708,0.22806981205940247,-0.8595213294029236,-1.082326889038086,-2.305943489074707,2024-06-17T21:49:12.117
-0.07708069682121277,0.4392036199569702,0.29537975788116455,-1.3303159475326538,-0.8426026105880737,-2.579437255859375,2024-06-17T21:49:12.137
0.012059211730957031,0.6065234541893005,0.382175475358963,-2.072399854660034,-0.5845135450363159,-2.742328643798828,2024-06-17T21:49:12.157
0.11227935552597046,0.7646713256835938,0.3603028357028961,-2.942075729370117,-0.38394248485565186,-2.9060189723968506,2024-06-17T21:49:12.177
0.4464002251625061,0.9718148112297058,0.1902550458908081,-3.515432834625244,-0.3928734064102173,-2.886282205581665,2024-06-17T21:49:12.197
0.9382186532020569,1.3644485473632812,0.060106389224529266,-4.043134689331055,-1.0989899635314941,-2.656484365463257,2024-06-17T21:49:12.217
1.8400899171829224,2.0435400009155273,-0.9100785255432129,-3.2450859546661377,-2.9482271671295166,-1.2361845970153809,2024-06-17T21:49:12.237
2.417118549346924,2.547402858734131,-2.2743496894836426,-1.3585633039474487,-3.929100275039673,1.5604783296585083,2024-06-17T21:49:12.257
2.0676918029785156,2.8101603984832764,-3.8403971195220947,0.5384238958358765,-1.9966044425964355,4.690026760101318,2024-06-17T21:49:12.277
0.597315788269043,2.858966827392578,-5.159140586853027,3.1275417804718018,3.4555461406707764,6.8295674324035645,2024-06-17T21:49:12.297
-1.0431379079818726,2.844705581665039,-4.190635681152344,5.44010591506958,6.985515594482422,7.228215217590332,2024-06-17T21:49:12.317
-1.7977982759475708,2.644727945327759,-2.014631509780884,6.390903472900391,6.8292236328125,6.838399887084961,2024-06-17T21:49:12.337
-2.5669422149658203,2.068676471710205,-0.1068195104598999,7.037369251251221,4.908544540405273,6.220785140991211,2024-06-17T21:49:12.357
-3.418562412261963,1.4653747081756592,2.000131607055664,6.7233147621154785,3.4198081493377686,4.978926658630371,2024-06-17T21:49:12.377
-3.4905271530151367,1.0716938972473145,3.8532915115356445,5.2389092445373535,3.183427572250366,3.418090581893921,2024-06-17T21:49:12.397
-2.8385422229766846,0.30106374621391296,5.265565872192383,2.559537172317505,2.806446075439453,1.7755067348480225,2024-06-17T21:49:12.417
-2.2696006298065186,0.17118051648139954,6.099062442779541,-0.9551699161529541,0.8883533477783203,0.1218746230006218,2024-06-17T21:49:12.437
-0.9727053642272949,0.930692195892334,6.213751792907715,-5.599932670593262,-0.6785866618156433,-0.6690765619277954,2024-06-17T21:49:12.457
-0.3123173713684082,2.1538734436035156,5.321072578430176,-10.754405975341797,-1.534968376159668,-0.3116769790649414,2024-06-17T21:49:12.477
-0.2734205722808838,3.2640058994293213,2.8327343463897705,-14.188212394714355,-2.3581416606903076,0.16248922049999237,2024-06-17T21:49:12.497
-0.9934849739074707,3.3172903060913086,-1.774099588394165,-11.825735092163086,-4.76175594329834,0.5868005156517029,2024-06-17T21:49:12.516
-2.021068572998047,2.493720769882202,-4.648038387298584,-7.117496967315674,-5.239969253540039,0.2690417170524597,2024-06-17T21:49:12.537
-1.6265405416488647,1.5230283737182617,-5.48822546005249,-2.9307281970977783,-2.8103952407836914,0.328096479177475,2024-06-17T21:49:12.557
-1.1208744049072266,0.5601324439048767,-4.523293495178223,0.17399664223194122,-0.41560474038124084,0.34803497791290283,2024-06-17T21:49:12.577
-0.5152162909507751,0.03326508402824402,-2.818704605102539,1.7937833070755005,0.5263810157775879,0.257540225982666,2024-06-17T21:49:12.597
-0.14135247468948364,-0.23921453952789307,-1.4324371814727783,2.3373780250549316,0.2764917314052582,-0.02110917493700981,2024-06-17T21:49:12.616
0.06376379728317261,-0.2985260784626007,-0.6116091012954712,2.373480796813965,0.18276624381542206,-0.28492534160614014,2024-06-17T21:49:12.636
0.1502864956855774,-0.27406013011932373,-0.0324435792863369,1.8193925619125366,0.20059046149253845,-0.49911296367645264,2024-06-17T21:49:12.656
0.3172292709350586,-0.22515559196472168,0.07348877191543579,1.3380004167556763,0.49742767214775085,-0.44234341382980347,2024-06-17T21:49:12.676
0.3875558376312256,-0.1571950614452362,0.22521454095840454,0.7788554430007935,0.8351260423660278,-0.16151997447013855,2024-06-17T21:49:12.696
0.35889309644699097,-0.10077714920043945,0.22711080312728882,0.1628067046403885,1.1714659929275513,0.18466590344905853,2024-06-17T21:49:12.716
0.19076257944107056,-0.008193761110305786,-0.006834805011749268,-0.34698301553726196,1.4458413124084473,0.4383705258369446,2024-06-17T21:49:12.736
-0.036209940910339355,0.0018201470375061035,-0.5266097187995911,0.031376343220472336,1.3833181858062744,0.6831679940223694,2024-06-17T21:49:12.756
-0.42943620681762695,-0.10621705651283264,-0.7870319485664368,0.9975035190582275,1.3847852945327759,0.7107171416282654,2024-06-17T21:49:12.776
-0.6791519522666931,-0.16787245869636536,-0.7032116651535034,1.7194862365722656,1.5403040647506714,0.5235475897789001,2024-06-17T21:49:12.796
-0.8933238983154297,-0.24617648124694824,-0.5666061639785767,2.3166842460632324,1.7278554439544678,0.362597793340683,2024-06-17T21:49:12.816
-1.2186717987060547,-0.32345712184906006,-0.32685673236846924,2.6842246055603027,1.7469549179077148,-0.06722111254930496,2024-06-17T21:49:12.836
-1.3542484045028687,-0.3410216271877289,-0.08066277205944061,2.8929975032806396,1.737134337425232,-0.7890650033950806,2024-06-17T21:49:12.856
-1.2276239395141602,-0.2690856456756592,0.1233995109796524,2.994025230407715,1.496751070022583,-1.4530128240585327,2024-06-17T21:49:12.876
-0.9725412130355835,-0.15260642766952515,0.3244398832321167,3.1487135887145996,0.5684356689453125,-1.9588850736618042,2024-06-17T21:49:12.896
-0.8156089186668396,-0.10891008377075195,0.44666093587875366,3.2180421352386475,-0.757060706615448,-2.450396776199341,2024-06-17T21:49:12.916
-0.6619940400123596,-0.037684619426727295,0.5744059681892395,2.872560977935791,-1.5195075273513794,-2.88781476020813,2024-06-17T21:49:12.936
-0.5232104063034058,0.021588563919067383,0.557218074798584,2.158249616622925,-1.7260836362838745,-3.340034008026123,2024-06-17T21:49:12.956
-0.26236653327941895,0.15153980255126953,0.47342240810394287,1.4999419450759888,-1.5471222400665283,-3.603337049484253,2024-06-17T21:49:12.976
0.03775501251220703,0.26656097173690796,0.40391993522644043,1.0491036176681519,-1.723294973373413,-3.584747552871704,2024-06-17T21:49:12.996
0.17305856943130493,0.37258607149124146,0.33631277084350586,0.7380185723304749,-2.109117269515991,-3.4061927795410156,2024-06-17T21:49:13.015
0.1745666265487671,0.40318673849105835,0.23216654360294342,0.46183305978775024,-2.336505889892578,-3.2402594089508057,2024-06-17T21:49:13.036
0.12495911121368408,0.46764814853668213,0.16547192633152008,0.08533925563097,-2.1371147632598877,-3.108800172805786,2024-06-17T21:49:13.056
0.06851908564567566,0.497413694858551,0.11868323385715485,-0.3524394631385803,-1.6990571022033691,-3.0295701026916504,2024-06-17T21:49:13.078
0.055096447467803955,0.5410057306289673,0.0708693265914917,-0.7121067047119141,-1.1586933135986328,-3.009023427963257,2024-06-17T21:49:13.095
0.12728124856948853,0.6677495837211609,0.07988069951534271,-0.976621150970459,-0.6852142810821533,-2.921194553375244,2024-06-17T21:49:13.116
0.18975475430488586,0.7677870988845825,0.1498509645462036,-1.2778083086013794,-0.5463226437568665,-2.788212537765503,2024-06-17T21:49:13.135
0.2832568883895874,0.8735135793685913,0.1972801685333252,-1.7374883890151978,-0.5628767013549805,-2.616652011871338,2024-06-17T21:49:13.155
0.41611507534980774,0.9693026542663574,0.15863896906375885,-2.2840020656585693,-0.5265311598777771,-2.3609697818756104,2024-06-17T21:49:13.175
0.5271979570388794,1.0878249406814575,-0.058641672134399414,-2.6159937381744385,-0.4234175682067871,-2.081939458847046,2024-06-17T21:49:13.195
0.8399985432624817,1.2509123086929321,-0.560049295425415,-2.2598719596862793,-0.38275349140167236,-1.610291838645935,2024-06-17T21:49:13.215
1.300957441329956,1.5774505138397217,-1.11268150806427,-1.1914969682693481,-0.7605004906654358,-0.7530093789100647,2024-06-17T21:49:13.235
1.9048895835876465,1.9367151260375977,-1.5058035850524902,-0.020200977101922035,-0.5923068523406982,1.137121558189392,2024-06-17T21:49:13.255
2.1989240646362305,2.162825345993042,-1.678667664527893,0.47147706151008606,0.44724416732788086,3.8401072025299072,2024-06-17T21:49:13.275
1.640330195426941,2.2642104625701904,-2.0038983821868896,0.5541085004806519,2.7558162212371826,6.294538974761963,2024-06-17T21:49:13.295
0.6468695998191833,2.2250287532806396,-2.3194029331207275,0.9880926609039307,4.934349536895752,7.4986162185668945,2024-06-17T21:49:13.315
-0.21677014231681824,2.041564464569092,-2.2373147010803223,1.7085539102554321,5.918534755706787,7.642895221710205,2024-06-17T21:49:13.335
-0.7721834182739258,1.7690629959106445,-1.665865421295166,2.653914213180542,5.279048919677734,7.304116249084473,2024-06-17T21:49:13.355
-1.5078749656677246,1.3657255172729492,-0.8109397292137146,3.434629440307617,3.86228084564209,6.930118083953857,2024-06-17T21:49:13.375
-2.715485095977783,0.9363715052604675,0.31865936517715454,3.4858317375183105,3.494647264480591,5.934581756591797,2024-06-17T21:49:13.395
-3.3824405670166016,0.4875698685646057,1.7840774059295654,2.3415722846984863,3.0618999004364014,4.175502300262451,2024-06-17T21:49:13.415
-3.3091962337493896,0.07344123721122742,2.87005877494812,0.6002091765403748,2.6039812564849854,2.3441874980926514,2024-06-17T21:49:13.435
-3.0982677936553955,-0.04442131519317627,3.711357355117798,-0.6890711188316345,0.9459344148635864,0.7142861485481262,2024-06-17T21:49:13.455
-2.7458181381225586,0.42296135425567627,4.68253231048584,-2.9781899452209473,-0.5408763885498047,-0.6575762033462524,2024-06-17T21:49:13.475
-2.301121473312378,1.3729503154754639,5.715006351470947,-8.144454956054688,-0.7655991315841675,-1.5893572568893433,2024-06-17T21:49:13.495
-2.2336506843566895,2.706432580947876,4.5012640953063965,-13.236367225646973,-1.3463873863220215,-2.7712528705596924,2024-06-17T21:49:13.515
-1.7987810373306274,3.84179949760437,0.510604977607727,-13.652250289916992,-3.300647497177124,-3.6126596927642822,2024-06-17T21:49:13.535
-1.206645131111145,3.1756482124328613,-2.611983299255371,-9.713582038879395,-6.147923946380615,-3.3196160793304443,2024-06-17T21:49:13.555
-0.5440166592597961,2.560098648071289,-4.380786418914795,-6.897180557250977,-6.069943904876709,-1.9851114749908447,2024-06-17T21:49:13.575
-0.27070218324661255,1.9225965738296509,-6.048222064971924,-3.516552209854126,-3.923203468322754,-0.6499906182289124,2024-06-17T21:49:13.595
-0.0629989504814148,1.067856788635254,-5.84268856048584,0.6083699464797974,-1.8377634286880493,0.11797841638326645,2024-06-17T21:49:13.615
0.11804020404815674,0.505436897277832,-3.9270451068878174,2.7826082706451416,0.005986277479678392,0.559182345867157,2024-06-17T21:49:13.634
0.20521581172943115,0.011357754468917847,-2.103759288787842,3.433722734451294,0.6304089426994324,0.5809258818626404,2024-06-17T21:49:13.655
0.20480364561080933,-0.15209749341011047,-0.955880880355835,3.7658209800720215,0.16306333243846893,0.563116729259491,2024-06-17T21:49:13.674
-0.08133792877197266,-0.20928242802619934,-0.2458464354276657,3.56774640083313,-0.23669961094856262,0.5141972303390503,2024-06-17T21:49:13.694
-0.5121230483055115,-0.26911571621894836,0.026545941829681396,3.0504281520843506,0.04073068127036095,0.20821018517017365,2024-06-17T21:49:13.714
-0.9155599474906921,-0.33845168352127075,0.020380690693855286,2.7513747215270996,0.43546417355537415,-0.41365429759025574,2024-06-17T21:49:13.734
-1.1057276725769043,-0.3265465795993805,-0.07756614685058594,3.0618274211883545,0.3787866532802582,-1.1665759086608887,2024-06-17T21:49:13.754
-1.0468177795410156,-0.23432016372680664,0.022589921951293945,3.4957125186920166,0.41156721115112305,-1.7678492069244385,2024-06-17T21:49:13.774
-0.9274518489837646,-0.08523276448249817,0.23735415935516357,3.645758628845215,0.38881513476371765,-2.2131800651550293,2024-06-17T21:49:13.794
-0.8348931670188904,0.048369795083999634,0.409714937210083,3.6738836765289307,-0.18415474891662598,-2.7065603733062744,2024-06-17T21:49:13.814
-0.6499652862548828,0.1807091236114502,0.5033011436462402,3.5431952476501465,-0.8251506090164185,-3.1548848152160645,2024-06-17T21:49:13.834
-0.3499758243560791,0.2923320531845093,0.5806025266647339,3.094698190689087,-1.1591479778289795,-3.267908811569214,2024-06-17T21:49:13.854
-0.13263702392578125,0.3276824355125427,0.5325168371200562,2.559041976928711,-1.27017343044281,-3.203456163406372,2024-06-17T21:49:13.874
-0.04701417684555054,0.3188345432281494,0.47032690048217773,2.1557672023773193,-1.3595821857452393,-3.17935848236084,2024-06-17T21:49:13.894
-0.05613291263580322,0.3342634439468384,0.48027801513671875,1.6288321018218994,-1.5542978048324585,-3.3036088943481445,2024-06-17T21:49:13.914
0.04740750789642334,0.3906700611114502,0.519068717956543,0.9673041701316833,-1.74272620677948,-3.2574594020843506,2024-06-17T21:49:13.934
-0.009723544120788574,0.4337834119796753,0.5429428815841675,0.025545919314026833,-1.791747808456421,-3.2710225582122803,2024-06-17T21:49:13.954
-0.03478965163230896,0.5288045406341553,0.4563271105289459,-1.0204577445983887,-1.4799398183822632,-3.411843776702881,2024-06-17T21:49:13.974
0.051866233348846436,0.6605667471885681,0.30577945709228516,-1.8702348470687866,-1.0582873821258545,-3.5270488262176514,2024-06-17T21:49:13.994
0.1721528172492981,0.7929911017417908,0.09830223023891449,-2.3137500286102295,-0.8321916460990906,-3.575084924697876,2024-06-17T21:49:14.014
0.34303349256515503,0.9725168943405151,0.039191827178001404,-2.549635648727417,-0.6328611373901367,-3.3868885040283203,2024-06-17T21:49:14.034
0.5171942114830017,1.0903282165527344,0.01844024658203125,-2.986846685409546,-0.1574433445930481,-3.0525829792022705,2024-06-17T21:49:14.054
0.7537387609481812,1.248768925666809,-0.06917738169431686,-3.487854242324829,0.4471738636493683,-2.5975184440612793,2024-06-17T21:49:14.074
1.077307939529419,1.4169849157333374,-0.40630173683166504,-3.342517852783203,0.2035359889268875,-1.906044840812683,2024-06-17T21:49:14.094
1.5392379760742188,1.5253031253814697,-0.8708139061927795,-1.9118266105651855,-2.0867631435394287,-0.772691011428833,2024-06-17T21:49:14.114
1.5327343940734863,1.521541714668274,-1.3097771406173706,0.3477163016796112,-4.81539249420166,0.4405999183654785,2024-06-17T21:49:14.134
1.418504238128662,1.569443941116333,-1.4961469173431396,1.5782405138015747,-5.112703323364258,1.5794641971588135,2024-06-17T21:49:14.154
1.4350080490112305,1.7233428955078125,-1.9180442094802856,2.2182562351226807,-3.0719618797302246,3.4967596530914307,2024-06-17T21:49:14.174
1.0685782432556152,1.951801061630249,-2.591921806335449,2.8300697803497314,1.5499937534332275,6.109739303588867,2024-06-17T21:49:14.194
-0.10184189677238464,2.2910377979278564,-3.192533254623413,4.165997505187988,6.693267822265625,8.324153900146484,2024-06-17T21:49:14.214
-1.9691956043243408,2.3028688430786133,-2.6360812187194824,5.005845069885254,9.353565216064453,8.71992301940918,2024-06-17T21:49:14.234
-3.2393245697021484,1.3717156648635864,-1.4829009771347046,5.323122978210449,7.412105560302734,6.010349750518799,2024-06-17T21:49:14.254
-2.7085628509521484,1.0453710556030273,-0.33815979957580566,5.695882320404053,3.7150697708129883,3.7054624557495117,2024-06-17T21:49:14.274
-2.2286386489868164,1.2593622207641602,0.6008567810058594,5.675033092498779,2.8785154819488525,3.6195950508117676,2024-06-17T21:49:14.294
-2.738142251968384,0.9446097612380981,2.048586845397949,4.453576564788818,4.353977680206299,3.1126933097839355,2024-06-17T21:49:14.313
-2.6125857830047607,0.3586089313030243,3.3956995010375977,2.5931177139282227,4.965682506561279,1.8788312673568726,2024-06-17T21:49:14.333
-2.101738452911377,0.2261897623538971,4.395941734313965,1.0123915672302246,2.5807323455810547,0.6242864727973938,2024-06-17T21:49:14.353
-1.6583621501922607,0.46299049258232117,5.360992908477783,-1.2219054698944092,-0.6603115797042847,-0.41672050952911377,2024-06-17T21:49:14.373
-1.237781047821045,1.0032627582550049,6.357755661010742,-6.653735160827637,-1.3507106304168701,-1.051042914390564,2024-06-17T21:49:14.393
-0.769706130027771,2.2308707237243652,5.5747575759887695,-13.177010536193848,-0.7584018111228943,-1.3800491094589233,2024-06-17T21:49:14.413
-0.7397505044937134,3.6110711097717285,1.3006067276000977,-14.389118194580078,-2.515388250350952,-1.8688585758209229,2024-06-17T21:49:14.433
-1.0306167602539062,3.3000173568725586,-2.7145071029663086,-10.245638847351074,-6.128353595733643,-1.8474936485290527,2024-06-17T21:49:14.453
-1.0193636417388916,2.4854164123535156,-4.63676118850708,-5.732083797454834,-5.780698299407959,-1.1255862712860107,2024-06-17T21:49:14.473
-0.6583974361419678,1.4844837188720703,-4.842255115509033,-2.2882907390594482,-2.3879213333129883,0.18411163985729218,2024-06-17T21:49:14.493
-0.8438550233840942,0.5993908643722534,-3.519080877304077,-0.5047258138656616,0.02146306447684765,0.4961230158805847,2024-06-17T21:49:14.513
-0.5578440427780151,0.05127847194671631,-2.516744613647461,0.7938319444656372,0.5366520881652832,-0.01630585826933384,2024-06-17T21:49:14.533
-0.009239733219146729,-0.1720549464225769,-1.3782747983932495,1.3819656372070312,0.16289359331130981,-0.283608078956604,2024-06-17T21:49:14.553
0.33443117141723633,-0.1985633373260498,-0.7168645262718201,1.4061572551727295,0.004969197325408459,-0.22609832882881165,2024-06-17T21:49:14.573
0.49236172437667847,-0.19420164823532104,-0.25003015995025635,1.1151044368743896,0.40072643756866455,0.08029954135417938,2024-06-17T21:49:14.593
0.4761226773262024,-0.2110578417778015,0.08674894273281097,0.5929694771766663,0.8318003416061401,0.3475796580314636,2024-06-17T21:49:14.613
0.3992050886154175,-0.19467321038246155,0.1519547700881958,0.2733379304409027,0.8073421120643616,0.4679255783557892,2024-06-17T21:49:14.633
0.319771945476532,-0.14609825611114502,0.10267144441604614,0.1733393371105194,0.6385430693626404,0.541280210018158,2024-06-17T21:49:14.653
0.1561245322227478,-0.11584731936454773,0.044779837131500244,0.08489832282066345,0.6427674293518066,0.6414037942886353,2024-06-17T21:49:14.673
-0.07221114635467529,-0.078155517578125,-0.04662221670150757,-0.2705446481704712,1.0757453441619873,0.7156828045845032,2024-06-17T21:49:14.693
-0.3449373245239258,-0.052326738834381104,-0.3566381633281708,-0.5022568106651306,1.7138655185699463,0.7176152467727661,2024-06-17T21:49:14.713
-0.7203075885772705,-0.10970750451087952,-0.7667696475982666,-0.012033107690513134,1.9578962326049805,0.4744310975074768,2024-06-17T21:49:14.733
-0.9700039625167847,-0.17255982756614685,-0.9545376896858215,0.9766350388526917,2.17091965675354,0.17322444915771484,2024-06-17T21:49:14.753
-1.1219244003295898,-0.18719789385795593,-0.8167333602905273,1.6713438034057617,2.641350746154785,-0.15169404447078705,2024-06-17T21:49:14.773
-1.186903715133667,-0.19931739568710327,-0.6015506982803345,1.9833016395568848,3.005899667739868,-0.5172731876373291,2024-06-17T21:49:14.793
-1.2220463752746582,-0.23686650395393372,-0.45023471117019653,2.4365766048431396,2.875670909881592,-1.0267977714538574,2024-06-17T21:49:14.813
-1.1895053386688232,-0.17906317114830017,-0.28083014488220215,3.0861082077026367,2.1142618656158447,-1.6064246892929077,2024-06-17T21:49:14.833
-1.139237403869629,-0.11229211091995239,-0.09371736645698547,3.573079824447632,1.29202139377594,-2.305443048477173,2024-06-17T21:49:14.853
-0.935617983341217,0.010027170181274414,0.11851835250854492,3.685821533203125,0.5719528198242188,-2.9292473793029785,2024-06-17T21:49:14.872
-0.7182934284210205,0.13558566570281982,0.23406335711479187,3.491834878921509,-0.09034305810928345,-3.3279128074645996,2024-06-17T21:49:14.892
-0.6067555546760559,0.18274140357971191,0.27688974142074585,3.1363494396209717,-0.2723490297794342,-3.581298589706421,2024-06-17T21:49:14.912
-0.5066522359848022,0.24641162157058716,0.3338584005832672,2.7200450897216797,-0.2565358281135559,-3.766242742538452,2024-06-17T21:49:14.932
-0.3784412145614624,0.3023120164871216,0.35001644492149353,2.350867748260498,-0.4348861277103424,-3.8569376468658447,2024-06-17T21:49:14.952
-0.36047881841659546,0.35896801948547363,0.3452689051628113,2.0720598697662354,-0.70306396484375,-4.003684043884277,2024-06-17T21:49:14.972
-0.3513919413089752,0.4206920862197876,0.3910459280014038,1.5827319622039795,-0.6637833118438721,-4.226476192474365,2024-06-17T21:49:14.992
-0.2625329792499542,0.6011785268783569,0.4508989453315735,0.7695476412773132,-0.16102978587150574,-4.361058712005615,2024-06-17T21:49:15.012
-0.14765796065330505,0.7088925242424011,0.3411486744880676,0.25397953391075134,0.2253561019897461,-4.299468517303467,2024-06-17T21:49:15.032
-0.09738211333751678,0.7943959832191467,0.2754530906677246,0.10190565884113312,0.43174874782562256,-4.281891345977783,2024-06-17T21:49:15.052
-0.024807795882225037,0.8970351219177246,0.41604405641555786,-0.03983518108725548,0.06254833191633224,-4.359312057495117,2024-06-17T21:49:15.072
0.09508704394102097,1.0766749382019043,0.4774808883666992,-0.35097643733024597,-0.47197237610816956,-4.316204071044922,2024-06-17T21:49:15.092
0.3138505518436432,1.3099405765533447,0.5072921514511108,-1.0815067291259766,-0.13987529277801514,-3.9092419147491455,2024-06-17T21:49:15.112
0.5795859694480896,1.4359066486358643,0.3667415976524353,-1.876759648323059,0.6336496472358704,-3.499054193496704,2024-06-17T21:49:15.132
1.19082510471344,1.6357808113098145,0.006511881947517395,-1.7991068363189697,0.743521511554718,-2.7873117923736572,2024-06-17T21:49:15.152
2.079085350036621,1.9571692943572998,-0.34869110584259033,-1.0252419710159302,0.10747399181127548,-1.2832632064819336,2024-06-17T21:49:15.172
2.7669620513916016,2.3932414054870605,-0.4695480465888977,-0.5005936622619629,-0.3584446907043457,1.1812169551849365,2024-06-17T21:49:15.192
2.9826581478118896,2.7431604862213135,-0.6038299798965454,-0.7479457259178162,0.06282710283994675,4.031158924102783,2024-06-17T21:49:15.212
2.671422004699707,3.209336042404175,-1.0783517360687256,-1.2603527307510376,1.0370252132415771,6.840986728668213,2024-06-17T21:49:15.232
1.8002434968948364,3.557755470275879,-1.6236244440078735,-0.990806519985199,2.1193687915802,8.792343139648438,2024-06-17T21:49:15.252
0.9563764333724976,3.753520965576172,-1.7020726203918457,-0.03712376952171326,2.4995479583740234,10.086918830871582,2024-06-17T21:49:15.272
-0.10561800003051758,3.777492046356201,-1.3938655853271484,0.9209858775138855,2.7990174293518066,11.071038246154785,2024-06-17T21:49:15.292
-1.7300152778625488,3.2121033668518066,-0.6745508909225464,1.1975196599960327,3.0731794834136963,11.075252532958984,2024-06-17T21:49:15.312
-3.3764865398406982,2.2927281856536865,-0.07725358009338379,0.4879463016986847,3.6312243938446045,9.619894981384277,2024-06-17T21:49:15.332
-4.535055637359619,1.313730001449585,0.4827592372894287,-0.20972861349582672,3.413072347640991,7.447540760040283,2024-06-17T21:49:15.352
-5.034102439880371,0.2510022222995758,1.1561732292175293,-0.9285168051719666,2.263343572616577,4.566573143005371,2024-06-17T21:49:15.372
-5.074929237365723,-0.6805910468101501,1.6525754928588867,-1.6311906576156616,1.5793976783752441,1.665245532989502,2024-06-17T21:49:15.392
-5.268576622009277,-0.9113734364509583,2.294710159301758,-2.5623857975006104,1.5602349042892456,-1.5430877208709717,2024-06-17T21:49:15.412
-4.6636176109313965,-0.3124370872974396,3.5942044258117676,-5.412778377532959,1.6680916547775269,-4.750720024108887,2024-06-17T21:49:15.431
-3.638093948364258,1.1021387577056885,3.683262348175049,-9.19953727722168,1.761337161064148,-7.3017120361328125,2024-06-17T21:49:15.451
-2.1614434719085693,2.331995964050293,1.8306186199188232,-10.54338550567627,0.5778453946113586,-8.927695274353027,2024-06-17T21:49:15.472
-0.5893764495849609,3.3854336738586426,-0.5598536729812622,-9.220924377441406,-2.386016368865967,-9.289833068847656,2024-06-17T21:49:15.491
1.2826731204986572,4.112072944641113,-3.2966370582580566,-6.5385613441467285,-4.977555274963379,-7.465682029724121,2024-06-17T21:49:15.511
2.4657299518585205,3.3637359142303467,-5.662053108215332,-2.007359504699707,-4.533793926239014,-3.7184269428253174,2024-06-17T21:49:15.531
2.570333957672119,2.2017858028411865,-5.071800231933594,2.0625526905059814,-2.035137414932251,-0.14159666001796722,2024-06-17T21:49:15.551
1.317517638206482,1.064947485923767,-2.73341703414917,3.407358169555664,-0.08216603845357895,1.3109397888183594,2024-06-17T21:49:15.571
0.6091853976249695,0.181595116853714,-1.0464420318603516,3.690143585205078,-0.6374502778053284,1.1396502256393433,2024-06-17T21:49:15.591
0.3346084952354431,-0.18864166736602783,-0.2636455297470093,3.7583048343658447,-1.3206026554107666,0.8610373139381409,2024-06-17T21:49:15.611
0.1311231255531311,-0.2859649658203125,0.31681162118911743,3.0237386226654053,-0.6786468029022217,0.7219094634056091,2024-06-17T21:49:15.631
0.0011206865310668945,-0.3848936855792999,0.7417234182357788,1.7574315071105957,0.2555069625377655,0.5717715620994568,2024-06-17T21:49:15.651
-0.08004409074783325,-0.40483734011650085,0.9186034202575684,0.26640671491622925,0.8153790235519409,0.2244061827659607,2024-06-17T21:49:15.671
-0.013152539730072021,-0.29693517088890076,0.49589836597442627,-0.38817882537841797,0.7454286217689514,-0.1504044085741043,2024-06-17T21:49:15.691
0.07967591285705566,-0.07072779536247253,0.03542935848236084,-0.2955445349216461,0.18979188799858093,-0.27970752120018005,2024-06-17T21:49:15.711
0.1397320032119751,0.03897261619567871,-0.3483019471168518,0.18509575724601746,-0.01513891015201807,-0.07966271787881851,2024-06-17T21:49:15.731
0.040888965129852295,0.03983253240585327,-0.4859461784362793,0.5499421954154968,0.21228045225143433,0.26676011085510254,2024-06-17T21:49:15.751
-0.1798897385597229,-0.0070566534996032715,-0.5983893871307373,0.8501569032669067,0.43536296486854553,0.5213472247123718,2024-06-17T21:49:15.771
-0.47937363386154175,-0.0819455087184906,-0.7673226594924927,1.5762211084365845,0.36767467856407166,0.5642536878585815,2024-06-17T21:49:15.791
-0.7922589778900146,-0.16418728232383728,-0.7622241973876953,2.2820522785186768,0.308326780796051,0.26312917470932007,2024-06-17T21:49:15.811
-0.9426040053367615,-0.24008074402809143,-0.6750549077987671,2.931178092956543,0.4805361330509186,-0.208421990275383,2024-06-17T21:49:15.831
-0.9934112429618835,-0.2373444139957428,-0.4289162755012512,3.3305022716522217,0.5148343443870544,-0.7461181282997131,2024-06-17T21:49:15.851
-0.9528946280479431,-0.1961512565612793,-0.2119828164577484,3.677995204925537,0.08820850402116776,-1.319851040840149,2024-06-17T21:49:15.871
-0.9336125254631042,-0.04915565252304077,-0.0026501119136810303,3.8494749069213867,-0.6095643043518066,-2.087660551071167,2024-06-17T21:49:15.891
-0.6453216671943665,-0.13104939460754395,0.14963316917419434,3.6964402198791504,-1.1527462005615234,-2.563685655593872,2024-06-17T21:49:15.910
-0.5740861892700195,0.060321807861328125,0.15447691082954407,3.5433907508850098,-1.340664267539978,-2.915780544281006,2024-06-17T21:49:15.931
-0.3915521502494812,0.08516901731491089,0.2484315037727356,3.307800531387329,-1.5800683498382568,-3.1853652000427246,2024-06-17T21:49:15.950
-0.32811248302459717,0.19293028116226196,0.3992767930030823,2.800739288330078,-1.8070446252822876,-3.329751968383789,2024-06-17T21:49:15.970
-0.310148149728775,0.26032382249832153,0.5685604810714722,1.8349652290344238,-1.7599053382873535,-3.445319652557373,2024-06-17T21:49:15.990
-0.3875081539154053,0.316680908203125,0.5145610570907593,0.8645526170730591,-1.540437936782837,-3.668440341949463,2024-06-17T21:49:16.010
-0.4234257936477661,0.3605344891548157,0.3885365128517151,0.2104177176952362,-0.9455395340919495,-4.0641584396362305,2024-06-17T21:49:16.030
-0.26495474576950073,0.5958877205848694,0.47860270738601685,-0.3713293671607971,-0.38544386625289917,-4.403550148010254,2024-06-17T21:49:16.050
-0.06989160180091858,0.8797856569290161,0.5850278735160828,-1.001354455947876,-0.3651430904865265,-4.519014835357666,2024-06-17T21:49:16.070
0.11268919706344604,1.1546144485473633,0.542229950428009,-1.5372340679168701,-0.5320743918418884,-4.4027910232543945,2024-06-17T21:49:16.090
0.3619579076766968,1.363445520401001,0.4145561456680298,-2.0777127742767334,-0.2589286267757416,-4.1416521072387695,2024-06-17T21:49:16.110
0.8334798812866211,1.6032273769378662,0.2487194687128067,-2.3546440601348877,-0.08896531909704208,-3.608635902404785,2024-06-17T21:49:16.130
1.5984069108963013,1.9011985063552856,-0.016683459281921387,-2.4451818466186523,-0.07655774056911469,-2.7234156131744385,2024-06-17T21:49:16.150
2.554680585861206,2.254694700241089,-0.4706365466117859,-1.7226693630218506,-0.9896824359893799,-0.7492836117744446,2024-06-17T21:49:16.170
2.9762065410614014,2.530768394470215,-0.9984791278839111,-0.5584637522697449,-1.9471279382705688,1.8174210786819458,2024-06-17T21:49:16.190
3.0788145065307617,2.941318988800049,-1.5768663883209229,0.47733786702156067,-1.3532531261444092,4.678248882293701,2024-06-17T21:49:16.210
2.6631481647491455,3.6471288204193115,-1.778979778289795,0.8778848648071289,0.24333515763282776,7.98466682434082,2024-06-17T21:49:16.230
1.311675786972046,4.005522727966309,-2.0554051399230957,0.9881541132926941,2.0913660526275635,10.259376525878906,2024-06-17T21:49:16.250
0.0047321617603302,4.155681610107422,-2.3839285373687744,2.408383369445801,3.2021965980529785,11.434591293334961,2024-06-17T21:49:16.270
-1.513083577156067,3.896357774734497,-1.605941891670227,3.690991163253784,3.3922173976898193,11.930970191955566,2024-06-17T21:49:16.290
-3.3557217121124268,2.738664150238037,-0.4330452084541321,3.731025457382202,3.279954671859741,10.431522369384766,2024-06-17T21:49:16.310
-4.35999059677124,1.6187716722488403,0.36382347345352173,3.3091814517974854,2.924957036972046,7.922760009765625,2024-06-17T21:49:16.330
-4.4592132568359375,0.6936843395233154,1.1592259407043457,2.681718587875366,3.0087502002716064,5.219658851623535,2024-06-17T21:49:16.350
-4.089237213134766,-0.01939302682876587,2.1740164756774902,1.3883333206176758,2.758230686187744,3.0358800888061523,2024-06-17T21:49:16.370
-4.03745174407959,-0.4778362214565277,2.9455060958862305,0.3209720551967621,1.8523551225662231,0.6998611092567444,2024-06-17T21:49:16.390
-3.7668216228485107,-0.3193039000034332,3.9462389945983887,-1.8389291763305664,1.345993995666504,-1.7957230806350708,2024-06-17T21:49:16.410
-3.101954936981201,0.299828439950943,5.098692893981934,-6.216301918029785,1.148690104484558,-3.7362170219421387,2024-06-17T21:49:16.430
-2.511389970779419,1.6941595077514648,4.906655788421631,-11.635522842407227,1.5640205144882202,-5.585657119750977,2024-06-17T21:49:16.450
-1.2502367496490479,2.9717013835906982,1.838207721710205,-12.774925231933594,0.35205480456352234,-6.988136291503906,2024-06-17T21:49:16.470
-0.07124197483062744,3.674771785736084,-1.3094241619110107,-10.062665939331055,-4.009143829345703,-6.612334251403809,2024-06-17T21:49:16.490
0.8700599670410156,3.5024654865264893,-3.8076460361480713,-7.115482807159424,-4.63941764831543,-4.279664993286133,2024-06-17T21:49:16.510
1.5119645595550537,2.536099910736084,-5.582907676696777,-2.921950101852417,-2.148743152618408,-1.4361172914505005,2024-06-17T21:49:16.530
0.9356976747512817,1.3005657196044922,-4.3149871826171875,0.6285443902015686,-0.10978979617357254,0.21641655266284943,2024-06-17T21:49:16.550
0.4508861303329468,0.4356738328933716,-2.2064311504364014,1.6721978187561035,0.051165975630283356,0.24831394851207733,2024-06-17T21:49:16.570
0.39519375562667847,-0.053100794553756714,-1.2039268016815186,2.1706531047821045,-0.6086528301239014,0.062345925718545914,2024-06-17T21:49:16.589
0.29657864570617676,-0.18747150897979736,-0.5674264430999756,2.3551478385925293,-0.5771883726119995,0.020092016085982323,2024-06-17T21:49:16.609
0.19304829835891724,-0.24411147832870483,0.04875895380973816,2.049574613571167,-0.4022715091705322,-0.053507644683122635,2024-06-17T21:49:16.629
0.24448162317276,-0.23126092553138733,0.40216538310050964,1.26554536819458,0.11875736713409424,0.012104890309274197,2024-06-17T21:49:16.649
0.25882023572921753,-0.19954875111579895,0.5301351547241211,0.2643330693244934,0.6928279399871826,0.15650691092014313,2024-06-17T21:49:16.669
0.21176475286483765,-0.11570104956626892,0.3144865930080414,-0.30632248520851135,0.7394951581954956,0.19286079704761505,2024-06-17T21:49:16.689
0.19230014085769653,0.01494365930557251,-0.023719310760498047,-0.2401823103427887,0.20978927612304688,0.23356205224990845,2024-06-17T21:49:16.709
0.116649329662323,0.10595402121543884,-0.40105390548706055,0.3040997087955475,-0.46180057525634766,0.356128990650177,2024-06-17T21:49:16.729
-0.004308760166168213,0.13228437304496765,-0.6504212617874146,0.8741990923881531,-0.5804715752601624,0.5828348398208618,2024-06-17T21:49:16.749
-0.21368128061294556,0.0658499002456665,-0.8083157539367676,1.3285870552062988,0.10883106291294098,0.8329674601554871,2024-06-17T21:49:16.769
-0.4883740544319153,-0.021189004182815552,-0.7438638210296631,1.7541543245315552,0.7693601250648499,0.9770782589912415,2024-06-17T21:49:16.789
-0.795030415058136,-0.1447756588459015,-0.5698213577270508,2.0089850425720215,1.1761621236801147,0.8845122456550598,2024-06-17T21:49:16.809
-1.098968267440796,-0.28117239475250244,-0.45282620191574097,2.2602758407592773,1.2403117418289185,0.3472706377506256,2024-06-17T21:49:16.829
-1.2202415466308594,-0.3073462247848511,-0.3835340142250061,2.792065382003784,1.0335358381271362,-0.40777286887168884,2024-06-17T21:49:16.849
-1.1601297855377197,-0.2761308550834656,-0.13789188861846924,3.272216320037842,0.4417370557785034,-1.1873224973678589,2024-06-17T21:49:16.869
-0.9839251637458801,-0.22140684723854065,0.11096176505088806,3.5210959911346436,-0.5569059252738953,-1.9484858512878418,2024-06-17T21:49:16.889
-0.7587153315544128,-0.1132659912109375,0.27158838510513306,3.4665658473968506,-1.4644420146942139,-2.541443109512329,2024-06-17T21:49:16.909
-0.5495818257331848,-0.01233983039855957,0.30109483003616333,3.1686959266662598,-1.9349490404129028,-2.9232518672943115,2024-06-17T21:49:16.929
-0.41174864768981934,0.0751306414604187,0.3264051079750061,2.7338459491729736,-1.8815252780914307,-3.09503436088562,2024-06-17T21:49:16.949
-0.3514987826347351,0.13263434171676636,0.3790241777896881,2.0889270305633545,-1.591689944267273,-3.2675108909606934,2024-06-17T21:49:16.969
-0.26568031311035156,0.19270074367523193,0.3705490231513977,1.4160672426223755,-1.2763752937316895,-3.393444061279297,2024-06-17T21:49:16.989
-0.2104644775390625,0.22974097728729248,0.28272849321365356,1.0085031986236572,-1.199318289756775,-3.4845075607299805,2024-06-17T21:49:17.009
-0.18132507801055908,0.28514593839645386,0.24474453926086426,0.7926427125930786,-1.3077924251556396,-3.615532398223877,2024-06-17T21:49:17.029
-0.14275601506233215,0.3860214948654175,0.2739109396934509,0.4816872477531433,-1.2920563220977783,-3.7172322273254395,2024-06-17T21:49:17.049
-0.1595677137374878,0.46537870168685913,0.2674069404602051,0.07581385970115662,-0.9528138637542725,-3.871141195297241,2024-06-17T21:49:17.068
-0.16000896692276,0.6139066815376282,0.34443891048431396,-0.42567795515060425,-0.5161166787147522,-4.123062610626221,2024-06-17T21:49:17.089
-0.045315951108932495,0.8507634997367859,0.44291436672210693,-1.0817441940307617,-0.1430104374885559,-4.350372791290283,2024-06-17T21:49:17.108
0.16640937328338623,1.0970633029937744,0.44506722688674927,-1.744662880897522,0.031731702387332916,-4.340611934661865,2024-06-17T21:49:17.128
0.46684062480926514,1.3114075660705566,0.30124008655548096,-2.1629159450531006,0.19835977256298065,-4.040981292724609,2024-06-17T21:49:17.148
0.9099395275115967,1.5151591300964355,0.14353293180465698,-2.323484182357788,0.048860255628824234,-3.383260726928711,2024-06-17T21:49:17.168
1.4266096353530884,1.7104078531265259,-0.21680870652198792,-2.0209336280822754,-0.44869133830070496,-2.4359562397003174,2024-06-17T21:49:17.188
2.0789549350738525,2.0145087242126465,-0.6781458854675293,-1.203685998916626,-1.1107852458953857,-0.9663887023925781,2024-06-17T21:49:17.208
2.664583206176758,2.4149551391601562,-0.9772095084190369,-0.5038602948188782,-1.2472363710403442,1.4739245176315308,2024-06-17T21:49:17.228
2.8424482345581055,2.8534836769104004,-1.4666156768798828,-0.13522367179393768,-0.08580920100212097,4.6599555015563965,2024-06-17T21:49:17.248
2.2645163536071777,3.1977946758270264,-1.9536808729171753,0.3626539707183838,1.9060449600219727,7.706762790679932,2024-06-17T21:49:17.268
1.0443018674850464,3.3853960037231445,-2.203644275665283,1.179976224899292,3.159461736679077,9.593196868896484,2024-06-17T21:49:17.288
-0.3537518382072449,3.1370091438293457,-2.1667301654815674,2.3286054134368896,3.5563719272613525,9.629414558410645,2024-06-17T21:49:17.308
-1.2346314191818237,2.7565064430236816,-1.5724687576293945,3.222324848175049,3.814662456512451,9.09070873260498,2024-06-17T21:49:17.328
-2.111849308013916,2.2434093952178955,-0.5696409344673157,3.1090543270111084,4.27876615524292,8.973994255065918,2024-06-17T21:49:17.348
-3.607461452484131,1.4820754528045654,0.4664698839187622,2.5176584720611572,4.478278160095215,7.761357307434082,2024-06-17T21:49:17.368
-4.310591697692871,0.6783649325370789,1.7381402254104614,1.5694423913955688,3.397791862487793,5.163320064544678,2024-06-17T21:49:17.388
-3.737501621246338,0.1699785590171814,2.652503490447998,0.03258077800273895,2.9943196773529053,3.0338246822357178,2024-06-17T21:49:17.408
-3.517298460006714,-0.14859527349472046,3.4167628288269043,-1.0360653400421143,1.463765263557434,1.746928334236145,2024-06-17T21:49:17.428
-4.099950790405273,-0.4619140028953552,4.5272440910339355,-3.222332000732422,0.045474570244550705,-0.6887418627738953,2024-06-17T21:49:17.448
-3.788677930831909,0.46509137749671936,5.559720039367676,-9.09589672088623,0.4078519642353058,-3.4329562187194824,2024-06-17T21:49:17.468
-2.786792755126953,2.226548671722412,4.303430557250977,-15.516057968139648,1.4590966701507568,-5.8034467697143555,2024-06-17T21:49:17.488
-1.5974209308624268,4.305607795715332,-1.2873328924179077,-14.36309814453125,-1.1019097566604614,-7.618997097015381,2024-06-17T21:49:17.508
0.24201208353042603,3.921698808670044,-5.720980167388916,-6.474035739898682,-4.94149923324585,-6.451081275939941,2024-06-17T21:49:17.528
1.5568053722381592,2.7473888397216797,-5.693082809448242,-1.2147871255874634,-3.572180986404419,-3.282562017440796,2024-06-17T21:49:17.548
1.6438013315200806,1.6805717945098877,-4.1853132247924805,0.8233335018157959,0.1438547670841217,-0.12356541305780411,2024-06-17T21:49:17.568
0.5604007244110107,0.5305823087692261,-2.326206684112549,1.5987310409545898,0.7826272249221802,0.3069583773612976,2024-06-17T21:49:17.588
0.3866119384765625,0.014468327164649963,-1.4860470294952393,2.794131278991699,-0.7231758236885071,-0.23495283722877502,2024-06-17T21:49:17.607
0.5137065649032593,-0.06329265236854553,-0.5787348747253418,3.1514945030212402,-0.9429655075073242,-0.17118605971336365,2024-06-17T21:49:17.627
0.408891499042511,-0.1770775020122528,0.020689696073532104,2.765558958053589,-0.6876125335693359,-0.06593097001314163,2024-06-17T21:49:17.647
0.3953315019607544,-0.2053314447402954,0.4725034832954407,1.8001412153244019,0.04868175834417343,0.09503578394651413,2024-06-17T21:49:17.668
0.36720848083496094,-0.19894203543663025,0.6705112457275391,0.4340851306915283,0.9099985957145691,0.3391137719154358,2024-06-17T21:49:17.687
0.2340260148048401,-0.14675062894821167,0.41087663173675537,-0.4670749604701996,1.1673409938812256,0.4946395456790924,2024-06-17T21:49:17.707
0.013170897960662842,-0.06430009007453918,-0.021459341049194336,-0.503171443939209,0.6110438108444214,0.45657292008399963,2024-06-17T21:49:17.727
-0.18412762880325317,-0.025679469108581543,-0.42806774377822876,0.010540321469306946,-0.054999515414237976,0.340304434299469,2024-06-17T21:49:17.747
-0.37693655490875244,-0.05635973811149597,-0.7950618863105774,0.8184632658958435,-0.27057576179504395,0.3179946839809418,2024-06-17T21:49:17.767
-0.6006371378898621,-0.1322822868824005,-0.8515045642852783,1.4983843564987183,0.21277889609336853,0.3256211578845978,2024-06-17T21:49:17.787
-0.8278211951255798,-0.19559860229492188,-0.7416612505912781,2.0455493927001953,0.5877805948257446,0.13696736097335815,2024-06-17T21:49:17.807
-0.9812700748443604,-0.2093084454536438,-0.5559600591659546,2.574023723602295,0.23248402774333954,-0.3588336110115051,2024-06-17T21:49:17.827
-1.0054320096969604,-0.21859213709831238,-0.4284422993659973,3.1712846755981445,-0.5893279314041138,-1.1445099115371704,2024-06-17T21:49:17.847
-0.7865630388259888,-0.0914405882358551,-0.3060123324394226,3.5888235569000244,-0.9214256405830383,-1.6190229654312134,2024-06-17T21:49:17.867
-0.6317670345306396,0.0005376338958740234,-0.0976058840751648,3.6139779090881348,-0.8234449028968811,-1.8704067468643188,2024-06-17T21:49:17.887
-0.46204525232315063,0.0608060359954834,0.09512653946876526,3.470092296600342,-1.0075496435165405,-2.0830869674682617,2024-06-17T21:49:17.907
-0.3024742603302002,0.11046534776687622,0.24296411871910095,3.2170140743255615,-1.5842934846878052,-2.267334461212158,2024-06-17T21:49:17.927
-0.26548057794570923,0.12774741649627686,0.29455655813217163,2.8277437686920166,-1.9327404499053955,-2.524038076400757,2024-06-17T21:49:17.947
-0.2355194091796875,0.1371590495109558,0.28782933950424194,2.4371728897094727,-1.883925437927246,-2.819157600402832,2024-06-17T21:49:17.967
-0.14988821744918823,0.1861429214477539,0.3504941463470459,2.015615701675415,-1.641674518585205,-3.0227246284484863,2024-06-17T21:49:17.987
-0.1256200671195984,0.2700209617614746,0.4392387270927429,1.4291653633117676,-1.5265477895736694,-3.1471874713897705,2024-06-17T21:49:18.007
-0.14193785190582275,0.29925602674484253,0.4471968412399292,0.7561306953430176,-1.3753629922866821,-3.2562639713287354,2024-06-17T21:49:18.027
-0.17835408449172974,0.34249186515808105,0.3988291025161743,0.1508948653936386,-0.9805381894111633,-3.4660544395446777,2024-06-17T21:49:18.047
-0.08701774477958679,0.40886783599853516,0.3311048746109009,-0.3026098608970642,-0.5442743301391602,-3.5737154483795166,2024-06-17T21:49:18.067
-0.018759489059448242,0.45590275526046753,0.3630385398864746,-0.6653593182563782,-0.2778545618057251,-3.6100540161132812,2024-06-17T21:49:18.087
-0.06202235817909241,0.5577143430709839,0.4318387508392334,-1.127297043800354,-0.2098499834537506,-3.7991092205047607,2024-06-17T21:49:18.107
0.006627604365348816,0.7718316912651062,0.49931657314300537,-1.8166412115097046,-0.001009141793474555,-3.997495412826538,2024-06-17T21:49:18.127
0.2115723341703415,1.0455756187438965,0.3400527238845825,-2.393211603164673,0.4116608202457428,-3.961376428604126,2024-06-17T21:49:18.147
0.524753212928772,1.23842191696167,0.19661760330200195,-2.51361083984375,0.3065236806869507,-3.6463074684143066,2024-06-17T21:49:18.167
1.0431634187698364,1.493936538696289,0.14709018170833588,-2.363252639770508,-0.7322328090667725,-2.8427155017852783,2024-06-17T21:49:18.187
1.5330876111984253,1.7533352375030518,0.06787100434303284,-2.4637274742126465,-2.2374675273895264,-1.5906463861465454,2024-06-17T21:49:18.207
1.6676428318023682,1.9097226858139038,-0.47957926988601685,-2.316600799560547,-3.1629862785339355,-0.10232017934322357,2024-06-17T21:49:18.227
1.6751803159713745,1.950535535812378,-1.455566167831421,-1.5923327207565308,-2.26582407951355,1.545647382736206,2024-06-17T21:49:18.247
1.9069331884384155,2.160952091217041,-2.152374744415283,-0.49531543254852295,0.34107232093811035,3.8136343955993652,2024-06-17T21:49:18.267
1.8910608291625977,2.638122081756592,-2.4002718925476074,0.930641233921051,2.2865257263183594,6.401605129241943,2024-06-17T21:49:18.287
1.1056886911392212,3.0788486003875732,-2.146801471710205,2.3949546813964844,2.4033610820770264,8.149402618408203,2024-06-17T21:49:18.306
0.22974979877471924,3.1967577934265137,-1.923060655593872,3.5119545459747314,2.3526580333709717,8.94731616973877,2024-06-17T21:49:18.326
-0.7345621585845947,3.0521228313446045,-1.6831777095794678,4.444657325744629,3.413039445877075,9.15103530883789,2024-06-17T21:49:18.346
-1.6469268798828125,2.8813672065734863,-0.6327400803565979,4.448444366455078,4.815214157104492,9.263436317443848,2024-06-17T21:49:18.366
-3.0622498989105225,2.2370352745056152,0.6200157403945923,3.449712038040161,5.563059329986572,8.753978729248047,2024-06-17T21:49:18.386
-4.252725601196289,1.1792943477630615,1.8916341066360474,2.101040840148926,4.484174728393555,7.124109268188477,2024-06-17T21:49:18.406
-4.66977596282959,0.19323420524597168,2.816267967224121,0.5318795442581177,2.9323976039886475,4.8408026695251465,2024-06-17T21:49:18.426
-4.98360538482666,-0.8661121129989624,3.3716354370117188,-1.2513351440429688,3.026237964630127,2.052403688430786,2024-06-17T21:49:18.446
-5.33388090133667,-1.0629056692123413,4.270816802978516,-3.533883810043335,2.227581024169922,-1.79453444480896,2024-06-17T21:49:18.466
-4.549338340759277,-0.14328858256340027,5.1587018966674805,-6.891172885894775,0.1275712549686432,-5.451045513153076,2024-06-17T21:49:18.486
-3.274916648864746,1.4823238849639893,4.472552299499512,-10.431925773620605,-1.2883671522140503,-7.851362228393555,2024-06-17T21:49:18.506
-1.7208094596862793,3.0470223426818848,2.2523066997528076,-12.214163780212402,-1.881716012954712,-8.849946975708008,2024-06-17T21:49:18.526
-0.2959136962890625,4.524598598480225,-0.4163655638694763,-11.98526382446289,-3.414823293685913,-8.240470886230469,2024-06-17T21:49:18.546
0.7840574979782104,4.880673408508301,-4.159910678863525,-8.187396049499512,-5.342840671539307,-6.304509162902832,2024-06-17T21:49:18.566
1.6769320964813232,3.6624951362609863,-5.70222806930542,-2.877617597579956,-4.666411399841309,-2.768373489379883,2024-06-17T21:49:18.586
1.5906689167022705,2.5331101417541504,-4.618126392364502,0.002236585598438978,-1.313204050064087,0.7565793991088867,2024-06-17T21:49:18.606
0.5852959156036377,1.3893427848815918,-3.032538414001465,1.1925724744796753,1.0477705001831055,2.138942241668701,2024-06-17T21:49:18.626
-0.1057782769203186,0.46952539682388306,-1.8713163137435913,2.4354982376098633,0.8538835048675537,1.7284998893737793,2024-06-17T21:49:18.646
-0.37792253494262695,0.02068910002708435,-0.8987634181976318,3.1094727516174316,0.22759303450584412,0.6922289729118347,2024-06-17T21:49:18.666
-0.3255651593208313,-0.09299620985984802,-0.2620202898979187,3.169069766998291,-0.2821619510650635,0.07482825219631195,2024-06-17T21:49:18.686
-0.26608723402023315,-0.17552077770233154,-0.10558974742889404,3.0187997817993164,-0.1640460044145584,-0.14822237193584442,2024-06-17T21:49:18.706
-0.22084391117095947,-0.16370227932929993,0.009093403816223145,2.645200490951538,0.6162781715393066,-0.029269643127918243,2024-06-17T21:49:18.726
-0.3404553532600403,-0.17532813549041748,0.01376408338546753,2.3079357147216797,1.3948403596878052,0.06771883368492126,2024-06-17T21:49:18.746
-0.42812806367874146,-0.13444682955741882,0.08549392223358154,2.0076632499694824,1.4564812183380127,-0.0030049169436097145,2024-06-17T21:49:18.766
-0.47161006927490234,-0.12601125240325928,-0.05667951703071594,2.145561933517456,0.8091791868209839,-0.15177388489246368,2024-06-17T21:49:18.786
-0.5973312854766846,-0.16113200783729553,-0.24165087938308716,2.6417224407196045,0.2127825915813446,-0.5166425704956055,2024-06-17T21:49:18.806
-0.6924404501914978,-0.16206634044647217,-0.24209356307983398,3.106706380844116,0.24273192882537842,-1.0499696731567383,2024-06-17T21:49:18.825
-0.680971622467041,-0.1227649450302124,-0.005407512187957764,3.0230050086975098,0.49338430166244507,-1.6861851215362549,2024-06-17T21:49:18.845
-0.4699286222457886,-0.03577202558517456,0.08660602569580078,2.9047749042510986,0.4172894060611725,-2.048394203186035,2024-06-17T21:49:18.865
-0.2858923077583313,0.06265300512313843,0.10685586929321289,3.042808771133423,-0.2687520682811737,-2.1383614540100098,2024-06-17T21:49:18.885
-0.22243589162826538,0.07018023729324341,0.07718485593795776,3.259622812271118,-0.9763415455818176,-2.2238857746124268,2024-06-17T21:49:18.905
-0.25580793619155884,0.03578239679336548,0.03263139724731445,3.4653141498565674,-1.2739840745925903,-2.488231897354126,2024-06-17T21:49:18.925
-0.20249396562576294,0.09008610248565674,0.056682705879211426,3.6568243503570557,-1.4308736324310303,-2.811638116836548,2024-06-17T21:49:18.945
-0.07582002878189087,0.19942229986190796,0.16820842027664185,3.8195629119873047,-1.8465639352798462,-2.8866002559661865,2024-06-17T21:49:18.965
0.02231365442276001,0.2818547487258911,0.40677952766418457,3.4988160133361816,-2.26971173286438,-2.8333709239959717,2024-06-17T21:49:18.985
0.08093664050102234,0.32979947328567505,0.5514789819717407,2.5052266120910645,-1.9770138263702393,-2.7528345584869385,2024-06-17T21:49:19.005
0.10159459710121155,0.30111438035964966,0.6626077890396118,1.0736522674560547,-1.2545918226242065,-2.7109503746032715,2024-06-17T21:49:19.025
0.06956702470779419,0.341485857963562,0.6159449815750122,-0.3055908679962158,-0.5857640504837036,-2.7435462474823,2024-06-17T21:49:19.045
0.1016230583190918,0.4896427392959595,0.6017078161239624,-1.4413496255874634,-0.27211132645606995,-2.778747797012329,2024-06-17T21:49:19.065
0.11200636625289917,0.6577115058898926,0.3909674882888794,-2.251984119415283,-0.10036097466945648,-2.837867021560669,2024-06-17T21:49:19.085
0.16072726249694824,0.7520901560783386,0.11756420135498047,-2.4655354022979736,-0.04444200545549393,-2.900564670562744,2024-06-17T21:49:19.105
0.37266087532043457,0.9195048213005066,-0.12669366598129272,-2.2685770988464355,-0.0767223984003067,-2.765932321548462,2024-06-17T21:49:19.125
0.6493828892707825,1.0712716579437256,-0.29172956943511963,-2.0478641986846924,-0.09548042714595795,-2.4809796810150146,2024-06-17T21:49:19.145
1.1890019178390503,1.3868803977966309,-0.43957382440567017,-1.975205421447754,0.19460555911064148,-1.6638238430023193,2024-06-17T21:49:19.165
1.8878728151321411,1.809204339981079,-0.601822018623352,-1.9223991632461548,0.08906257152557373,-0.038441628217697144,2024-06-17T21:49:19.185
2.1983320713043213,2.155378818511963,-1.059824824333191,-1.5853075981140137,0.027874581515789032,2.0491888523101807,2024-06-17T21:49:19.205
2.416712522506714,2.4930968284606934,-1.7220087051391602,-1.060103178024292,1.0211766958236694,4.467765808105469,2024-06-17T21:49:19.225
2.307387113571167,2.9618663787841797,-2.3868348598480225,-0.016527026891708374,2.525759220123291,7.202048301696777,2024-06-17T21:49:19.245
1.409163236618042,3.575684070587158,-2.7439799308776855,1.098368763923645,3.828925132751465,9.554723739624023,2024-06-17T21:49:19.265
-0.19406789541244507,3.5973072052001953,-2.7021570205688477,2.947392702102661,4.028265476226807,9.998383522033691,2024-06-17T21:49:19.285
-1.3806960582733154,3.1057627201080322,-1.4877818822860718,4.015293121337891,3.466218948364258,9.071793556213379,2024-06-17T21:49:19.305
-2.093675136566162,2.5765581130981445,-0.36077362298965454,3.787674903869629,2.9174883365631104,8.628270149230957,2024-06-17T21:49:19.325
-3.1920979022979736,1.9666690826416016,0.24801327288150787,3.576141595840454,3.6057662963867188,8.307572364807129,2024-06-17T21:49:19.345
-4.2016448974609375,1.0275707244873047,1.606689453125,2.4032950401306152,4.414577484130859,6.413557529449463,2024-06-17T21:49:19.365
-4.0987091064453125,0.06306293606758118,2.739370346069336,0.8181330561637878,3.5139381885528564,4.205326080322266,2024-06-17T21:49:19.385
-4.182370185852051,-0.6102399826049805,3.612988233566284,-0.24705995619297028,0.9546680450439453,1.915318250656128,2024-06-17T21:49:19.405
-4.330277442932129,-0.7062081694602966,4.586400985717773,-2.734736204147339,0.3690567910671234,-0.9270706176757812,2024-06-17T21:49:19.425
-3.8619296550750732,0.16543340682983398,5.766367435455322,-8.36255931854248,1.398406744003296,-3.798804521560669,2024-06-17T21:49:19.445
-2.6766819953918457,1.8474328517913818,4.3273606300354,-12.64428424835205,1.8475326299667358,-6.067768573760986,2024-06-17T21:49:19.465
-1.311715841293335,3.1338088512420654,1.5819121599197388,-12.593206405639648,-1.0190635919570923,-7.301476001739502,2024-06-17T21:49:19.484
-0.3054361343383789,3.9127562046051025,-1.8828938007354736,-9.150313377380371,-5.841084003448486,-7.283906936645508,2024-06-17T21:49:19.504
1.4600375890731812,3.9940154552459717,-4.8418121337890625,-5.5764994621276855,-5.108880519866943,-4.077505588531494,2024-06-17T21:49:19.524
1.9017329216003418,2.687284469604492,-6.080372333526611,-1.026485562324524,-1.8127063512802124,-0.0791599452495575,2024-06-17T21:49:19.544
0.7561929821968079,1.3035917282104492,-3.5831618309020996,1.9255446195602417,-0.38203996419906616,1.3544007539749146,2024-06-17T21:49:19.564
0.06203031539916992,0.3009538948535919,-1.3542430400848389,1.9094164371490479,-0.84416264295578,1.1387933492660522,2024-06-17T21:49:19.584
-0.24664688110351562,-0.2708200216293335,-0.9014724493026733,2.235440254211426,-1.3823350667953491,0.5659583210945129,2024-06-17T21:49:19.604
-0.31397444009780884,-0.38638627529144287,-0.31937381625175476,2.152613639831543,-0.7374465465545654,0.2319479137659073,2024-06-17T21:49:19.624
-0.17563235759735107,-0.36716583371162415,0.15270063281059265,1.4224733114242554,0.26393064856529236,0.40160441398620605,2024-06-17T21:49:19.644
-0.3578912019729614,-0.4109380841255188,0.2726244628429413,0.786983072757721,0.8960180878639221,0.337289422750473,2024-06-17T21:49:19.664
-0.4383646249771118,-0.3512778878211975,0.2664801776409149,0.2421998232603073,1.0692898035049438,-0.03117159754037857,2024-06-17T21:49:19.684
-0.4636456370353699,-0.16642603278160095,-0.03483453392982483,0.11191696673631668,0.6805500984191895,-0.35059699416160583,2024-06-17T21:49:19.704
-0.5294593572616577,-0.020902425050735474,-0.4083482623100281,0.6518456935882568,-0.20545479655265808,-0.6717934012413025,2024-06-17T21:49:19.724
-0.6187695264816284,0.01563015580177307,-0.6053051948547363,1.317726492881775,-0.535670816898346,-0.9689523577690125,2024-06-17T21:49:19.744
-0.620274543762207,0.051795125007629395,-0.573127031326294,1.574247121810913,0.0958888828754425,-1.086698055267334,2024-06-17T21:49:19.764
-0.6357067823410034,0.015875160694122314,-0.5088962316513062,1.8904531002044678,0.5532569885253906,-1.1981531381607056,2024-06-17T21:49:19.784
-0.6887710690498352,-0.027515769004821777,-0.29194414615631104,2.0605621337890625,0.44015535712242126,-1.5089994668960571,2024-06-17T21:49:19.804
-0.6986047029495239,-0.06738513708114624,-0.18346387147903442,2.1170899868011475,0.014129647053778172,-1.965418815612793,2024-06-17T21:49:19.824
-0.6591795086860657,-0.057444483041763306,-0.20912200212478638,2.2590620517730713,-0.17505419254302979,-2.446256637573242,2024-06-17T21:49:19.844
-0.5282800793647766,0.018935859203338623,-0.1943223774433136,2.5525615215301514,-0.018712839111685753,-2.8340110778808594,2024-06-17T21:49:19.864
-0.31098151206970215,0.14245283603668213,0.0179288387298584,2.637333869934082,-0.0011074126232415438,-3.0056028366088867,2024-06-17T21:49:19.884
-0.16502845287322998,0.20787584781646729,0.15963658690452576,2.532644748687744,-0.0553121343255043,-2.9858767986297607,2024-06-17T21:49:19.903
-0.10589295625686646,0.23219305276870728,0.27402830123901367,2.371455192565918,-0.22905521094799042,-3.027548313140869,2024-06-17T21:49:19.924
-0.04601562023162842,0.27057939767837524,0.40372318029403687,2.07542085647583,-0.49180465936660767,-3.15749454498291,2024-06-17T21:49:19.943
-0.04124879837036133,0.3110694885253906,0.43454617261886597,1.6064088344573975,-0.6820521354675293,-3.296950340270996,2024-06-17T21:49:19.963
-0.06347107887268066,0.3928065896034241,0.4082139730453491,1.0915114879608154,-0.5210303664207458,-3.4797322750091553,2024-06-17T21:49:19.983
-0.006855666637420654,0.4593728184700012,0.36479806900024414,0.6867452263832092,-0.4025854468345642,-3.563217878341675,2024-06-17T21:49:20.003
0.08330488204956055,0.4955143928527832,0.3334488868713379,0.5096626281738281,-0.6571512818336487,-3.4586715698242188,2024-06-17T21:49:20.023
0.008954077959060669,0.45167338848114014,0.379305899143219,0.20891763269901276,-0.7596961855888367,-3.4773969650268555,2024-06-17T21:49:20.044
-0.05829340219497681,0.511211633682251,0.41563165187835693,-0.2955777645111084,-0.6038029789924622,-3.7041590213775635,2024-06-17T21:49:20.063
-0.0461387038230896,0.6555382609367371,0.4147299528121948,-0.8498309850692749,-0.3884141147136688,-3.977949857711792,2024-06-17T21:49:20.083
0.0901745855808258,0.8861214518547058,0.3562396764755249,-1.3496036529541016,-0.22704744338989258,-4.1062726974487305,2024-06-17T21:49:20.103
0.40714365243911743,1.1733384132385254,0.3069959878921509,-1.8279544115066528,-0.0649089366197586,-3.967205762863159,2024-06-17T21:49:20.123
1.1236317157745361,1.5490925312042236,0.07975947856903076,-2.2018918991088867,0.01771984063088894,-3.19081711769104,2024-06-17T21:49:20.143
2.02728009223938,1.9400770664215088,-0.3182084262371063,-2.4325382709503174,-0.19144274294376373,-1.422247052192688,2024-06-17T21:49:20.163
2.563586950302124,2.219210147857666,-1.1482092142105103,-2.7993853092193604,0.5494333505630493,1.0289860963821411,2024-06-17T21:49:20.183
2.699751853942871,2.4535210132598877,-2.4434826374053955,-1.5985215902328491,1.462482213973999,3.6114628314971924,2024-06-17T21:49:20.203
2.4113168716430664,2.7899770736694336,-3.021307945251465,1.083103895187378,1.944549560546875,6.290195941925049,2024-06-17T21:49:20.223
1.36643385887146,2.995767831802368,-2.473733425140381,2.48720121383667,3.2692925930023193,8.42457389831543,2024-06-17T21:49:20.243
0.10609704256057739,2.8859925270080566,-1.7654818296432495,2.637647867202759,4.702126502990723,9.377659797668457,2024-06-17T21:49:20.263
-0.8936904072761536,2.6908419132232666,-1.18744695186615,2.7442097663879395,5.1316423416137695,9.4861421585083,2024-06-17T21:49:20.283
-1.9066081047058105,2.36598539352417,-0.44708383083343506,2.892521619796753,4.715676784515381,9.22101879119873,2024-06-17T21:49:20.303
-3.0546932220458984,1.813995361328125,0.37277358770370483,2.8742611408233643,4.617039680480957,8.58057689666748,2024-06-17T21:49:20.323
-4.081762313842773,1.0888006687164307,1.7705163955688477,1.7835772037506104,3.914503812789917,6.677286624908447,2024-06-17T21:49:20.343
-4.0608391761779785,0.28091922402381897,2.8405184745788574,-0.1975063532590866,3.1135222911834717,4.228621006011963,2024-06-17T21:49:20.363
-4.05560827255249,0.016650885343551636,3.1559720039367676,-1.8282599449157715,1.6607892513275146,2.348752975463867,2024-06-17T21:49:20.383
-4.533031940460205,-0.23798108100891113,3.647909641265869,-3.092839479446411,0.15244458615779877,-0.3843531012535095,2024-06-17T21:49:20.403
-4.58607816696167,0.21058771014213562,4.774362564086914,-6.77276611328125,-0.6970342397689819,-4.039942741394043,2024-06-17T21:49:20.423
-3.7259581089019775,1.961352825164795,4.675963401794434,-11.893877983093262,0.19682946801185608,-6.838466167449951,2024-06-17T21:49:20.443
-2.3507332801818848,3.8003203868865967,2.6327176094055176,-14.547880172729492,0.7329006195068359,-8.718771934509277,2024-06-17T21:49:20.463
-0.8652276992797852,5.0630412101745605,-0.863359808921814,-12.503756523132324,-3.2466938495635986,-9.887622833251953,2024-06-17T21:49:20.482
0.9822647571563721,5.5438642501831055,-4.551896095275879,-7.613285541534424,-6.945154190063477,-7.757724761962891,2024-06-17T21:49:20.502
2.502258777618408,4.397590637207031,-6.626835823059082,-3.154977798461914,-3.093797445297241,-2.317225933074951,2024-06-17T21:49:20.522
2.1077167987823486,2.762629508972168,-5.836261749267578,1.0457611083984375,0.5636277198791504,1.9198968410491943,2024-06-17T21:49:20.542
0.29498809576034546,0.9994978308677673,-3.0074098110198975,2.635587453842163,1.3859299421310425,1.9703519344329834,2024-06-17T21:49:20.562
0.17221039533615112,0.05342702567577362,-1.4257725477218628,3.4788923263549805,-0.3226828873157501,1.1361669301986694,2024-06-17T21:49:20.582
-0.046732544898986816,-0.2554827332496643,-0.6356782913208008,3.866826057434082,-1.0052825212478638,0.6031928062438965,2024-06-17T21:49:20.602
-0.09640896320343018,-0.25671377778053284,-0.040932536125183105,3.2477128505706787,0.07902304828166962,0.4391365349292755,2024-06-17T21:49:20.622
-0.09764641523361206,-0.3384796679019928,0.26104164123535156,2.5031955242156982,0.9546685814857483,0.5085849761962891,2024-06-17T21:49:20.642
-0.19673848152160645,-0.40451133251190186,0.47432392835617065,1.7751274108886719,1.1944811344146729,0.38230282068252563,2024-06-17T21:49:20.662
-0.28736579418182373,-0.4050109386444092,0.48810386657714844,1.0682055950164795,0.8965689539909363,0.013099061325192451,2024-06-17T21:49:20.682
-0.29564154148101807,-0.2630763053894043,0.1562497615814209,0.8604143857955933,0.17503118515014648,-0.3477143943309784,2024-06-17T21:49:20.702
-0.21298086643218994,-0.13900703191757202,-0.24709731340408325,1.237606406211853,-0.3883255422115326,-0.4888654351234436,2024-06-17T21:49:20.722
-0.277152419090271,-0.027741342782974243,-0.4960039258003235,1.9946714639663696,-0.5206268429756165,-0.4115654230117798,2024-06-17T21:49:20.742
-0.3870598077774048,-0.02516910433769226,-0.4746513366699219,2.3839478492736816,-0.32985493540763855,-0.4527127742767334,2024-06-17T21:49:20.762
-0.4863510727882385,-0.070757657289505,-0.4507208466529846,2.7610926628112793,-0.0698905810713768,-0.642318069934845,2024-06-17T21:49:20.782
-0.5050600171089172,-0.07993048429489136,-0.28645437955856323,3.1694750785827637,-0.27347153425216675,-0.9153832197189331,2024-06-17T21:49:20.802
-0.521312415599823,-0.09912645816802979,-0.10028618574142456,3.6063179969787598,-0.8816975355148315,-1.2824268341064453,2024-06-17T21:49:20.822
-0.5769777894020081,-0.1507822871208191,0.0657263994216919,3.915717601776123,-1.635817289352417,-1.8707228899002075,2024-06-17T21:49:20.842
-0.5637370347976685,-0.1720539927482605,0.13083523511886597,4.258559703826904,-2.181919574737549,-2.565587282180786,2024-06-17T21:49:20.862
-0.39380449056625366,-0.07358062267303467,0.46060240268707275,4.0723347663879395,-2.514770269393921,-3.1002628803253174,2024-06-17T21:49:20.882
-0.18914717435836792,0.03773778676986694,0.7650428414344788,3.214888334274292,-2.8103830814361572,-3.2862136363983154,2024-06-17T21:49:20.902
-0.0858081579208374,0.047999560832977295,0.8009520769119263,2.0690653324127197,-2.7519354820251465,-3.286935329437256,2024-06-17T21:49:20.922
-0.0053345561027526855,0.14053791761398315,0.7433950901031494,0.8730870485305786,-2.1586227416992188,-3.097207546234131,2024-06-17T21:49:20.942
-0.022515594959259033,0.2644076347351074,0.624086856842041,-0.31010663509368896,-1.38287353515625,-2.9183692932128906,2024-06-17T21:49:20.962
-0.02673971652984619,0.3393248915672302,0.3720285892486572,-1.0885117053985596,-0.6691612601280212,-2.809288740158081,2024-06-17T21:49:20.982
-0.021446943283081055,0.41773366928100586,0.16406166553497314,-1.4437637329101562,-0.513301432132721,-2.7305710315704346,2024-06-17T21:49:21.001
-0.03420776128768921,0.48852992057800293,-0.07365918159484863,-1.2956448793411255,-0.7278675436973572,-2.714738130569458,2024-06-17T21:49:21.022
-0.01934605836868286,0.6185402870178223,-0.24517440795898438,-0.8845977783203125,-1.0274630784988403,-2.63569712638855,2024-06-17T21:49:21.042
-0.07478037476539612,0.7111267447471619,-0.2591886520385742,-0.6747665405273438,-0.5877801775932312,-2.587372303009033,2024-06-17T21:49:21.062
-0.12230698764324188,0.7930070161819458,-0.11099588871002197,-0.9932247996330261,0.34868142008781433,-2.686391830444336,2024-06-17T21:49:21.081
0.06581521034240723,0.9058852791786194,0.013419151306152344,-1.4345662593841553,0.7194545865058899,-2.552765130996704,2024-06-17T21:49:21.101
