ax,ay,az,gx,gy,gz,timestamp
-4.921895503997803,0.8041794896125793,3.545954465866089,-6.515637397766113,-9.885217666625977,-8.452310562133789,2024-06-17T22:12:00.107
-5.461991310119629,3.5812487602233887,3.282921552658081,-14.327814102172852,-6.200768947601318,-11.207934379577637,2024-06-17T22:12:00.127
-4.293886661529541,6.076964855194092,-1.8781049251556396,-12.300533294677734,-2.8866753578186035,-13.000226974487305,2024-06-17T22:12:00.147
-1.4870123863220215,6.553668022155762,-4.9552483558654785,-5.250335693359375,-5.340613842010498,-11.255377769470215,2024-06-17T22:12:00.167
1.45222806930542,6.164745807647705,-5.037701606750488,-2.022162437438965,-3.825566291809082,-6.720483303070068,2024-06-17T22:12:00.187
2.713289260864258,5.311770439147949,-4.774545669555664,-0.6660023927688599,0.2303488552570343,-2.5840022563934326,2024-06-17T22:12:00.207
3.1048576831817627,4.0359063148498535,-4.1774139404296875,1.3727389574050903,2.0772597789764404,0.18066395819187164,2024-06-17T22:12:00.226
2.8394737243652344,3.0993196964263916,-2.923821449279785,3.576000213623047,1.5863980054855347,1.769935131072998,2024-06-17T22:12:00.247
2.624274492263794,2.523592233657837,-1.5149152278900146,4.414549827575684,1.0556806325912476,3.3189516067504883,2024-06-17T22:12:00.266
1.8516539335250854,2.031332492828369,-0.2542381286621094,3.392366647720337,1.336502194404602,4.2059454917907715,2024-06-17T22:12:00.286
1.0111110210418701,1.5332067012786865,0.12416446208953857,1.780813217163086,2.4415693283081055,4.490420341491699,2024-06-17T22:12:00.306
0.5474444031715393,1.156421422958374,-0.028229117393493652,0.8271339535713196,3.233294725418091,4.688633918762207,2024-06-17T22:12:00.326
0.10682283341884613,0.9688943028450012,-0.2161785364151001,0.6181531548500061,3.3539257049560547,4.714268684387207,2024-06-17T22:12:00.346
-0.16943570971488953,0.8732951879501343,-0.29278564453125,0.48380592465400696,3.427339792251587,4.602935791015625,2024-06-17T22:12:00.366
-0.2885777950286865,0.7801764607429504,-0.4322747588157654,0.6334953904151917,3.355522871017456,4.516838073730469,2024-06-17T22:12:00.386
-0.35696083307266235,0.7202759385108948,-0.5190215706825256,0.9243175387382507,3.273919105529785,4.573359489440918,2024-06-17T22:12:00.406
-0.4555492401123047,0.679095983505249,-0.5107071995735168,1.0787192583084106,3.2211451530456543,4.61924934387207,2024-06-17T22:12:00.426
-0.622384786605835,0.596908688545227,-0.4415951371192932,1.0922209024429321,3.1281464099884033,4.464039325714111,2024-06-17T22:12:00.446
-0.7288955450057983,0.43748581409454346,-0.37639451026916504,1.0689406394958496,2.766423463821411,4.262423038482666,2024-06-17T22:12:00.466
-0.8540620803833008,0.39530712366104126,-0.39051592350006104,1.0513685941696167,2.716172456741333,3.9829413890838623,2024-06-17T22:12:00.486
-0.974287748336792,0.39866018295288086,-0.32719993591308594,0.7676076889038086,3.327620267868042,3.590111017227173,2024-06-17T22:12:00.506
-0.862055778503418,0.32899463176727295,-0.168340265750885,0.45088544487953186,3.5056769847869873,3.607492208480835,2024-06-17T22:12:00.526
-0.9838962554931641,0.11993831396102905,-0.26810646057128906,0.877224862575531,2.9652388095855713,3.3360869884490967,2024-06-17T22:12:00.546
-1.2317869663238525,0.01890265941619873,-0.20489442348480225,1.381932258605957,2.5047707557678223,2.446239471435547,2024-06-17T22:12:00.566
-1.140596628189087,-0.015607595443725586,0.19003283977508545,1.0345336198806763,2.181133985519409,1.6610976457595825,2024-06-17T22:12:00.586
-0.7840955257415771,0.0073163509368896484,0.4596289396286011,0.19378332793712616,1.7148724794387817,1.7032208442687988,2024-06-17T22:12:00.606
-0.7802407741546631,-0.06640368700027466,0.2756839990615845,-0.27622243762016296,1.4611488580703735,1.6862825155258179,2024-06-17T22:12:00.625
-0.9663813710212708,-0.0252038836479187,0.0657815933227539,-0.35105928778648376,1.699995994567871,1.2355326414108276,2024-06-17T22:12:00.645
-0.8861143589019775,0.0252530574798584,0.052684247493743896,-0.33881139755249023,1.7815111875534058,0.8596470952033997,2024-06-17T22:12:00.666
-0.6377572417259216,0.11935490369796753,0.06931304931640625,-0.14254282414913177,1.3667742013931274,0.8732986450195312,2024-06-17T22:12:00.685
-0.5179598927497864,0.14512419700622559,0.0286901593208313,0.3237666189670563,0.6517103910446167,1.0507333278656006,2024-06-17T22:12:00.706
-0.5776288509368896,0.1165054440498352,0.060311317443847656,0.747007429599762,0.10038553923368454,1.0562430620193481,2024-06-17T22:12:00.725
-0.6307965517044067,0.06928741931915283,0.16286015510559082,0.8882151246070862,-0.15263120830059052,0.9817752242088318,2024-06-17T22:12:00.745
-0.612541913986206,0.0603446364402771,0.27137327194213867,0.7307811975479126,-0.2118457406759262,0.9266631603240967,2024-06-17T22:12:00.765
-0.6260908842086792,0.06536531448364258,0.3624633550643921,0.4598771333694458,-0.23977170884609222,1.0225601196289062,2024-06-17T22:12:00.785
-0.7592711448669434,0.08591467142105103,0.3881608843803406,0.2552947700023651,-0.6060381531715393,0.9946746230125427,2024-06-17T22:12:00.805
-0.9346259832382202,0.09810882806777954,0.33985644578933716,0.2296772301197052,-1.111995816230774,0.8647787570953369,2024-06-17T22:12:00.825
-1.1119590997695923,0.15972435474395752,0.3285539746284485,0.14775043725967407,-1.257814645767212,0.7373830080032349,2024-06-17T22:12:00.845
-1.3506184816360474,0.28411877155303955,0.37949055433273315,-0.09477553516626358,-1.3595905303955078,0.38752371072769165,2024-06-17T22:12:00.865
-1.5495911836624146,0.3147515058517456,0.4181414842605591,-0.2463875412940979,-1.9315341711044312,-0.09752362221479416,2024-06-17T22:12:00.885
-1.6106253862380981,0.1978241205215454,0.5335747599601746,-0.4789956510066986,-2.949481725692749,-0.5689839124679565,2024-06-17T22:12:00.905
-1.8779022693634033,0.015721797943115234,0.5916889309883118,-0.7850132584571838,-3.941004991531372,-1.457584261894226,2024-06-17T22:12:00.925
-2.4134392738342285,-0.22417819499969482,0.6164836883544922,-0.6045029759407043,-4.869516372680664,-2.778327465057373,2024-06-17T22:12:00.945
-3.1576592922210693,-0.3824930191040039,0.8730412721633911,-0.4203927516937256,-6.433131694793701,-4.669327735900879,2024-06-17T22:12:00.965
-3.6657161712646484,-0.057653188705444336,2.1313514709472656,-2.8439602851867676,-7.442175388336182,-7.337078094482422,2024-06-17T22:12:00.985
-4.239213943481445,1.244540810585022,3.421083688735962,-7.806137561798096,-8.892614364624023,-10.505721092224121,2024-06-17T22:12:01.005
-4.114954471588135,4.036775588989258,2.420942783355713,-12.50871753692627,-7.871619701385498,-12.566847801208496,2024-06-17T22:12:01.025
-3.6711063385009766,6.727659702301025,-1.3272695541381836,-13.474671363830566,-2.9415979385375977,-13.51126766204834,2024-06-17T22:12:01.045
-0.009002253413200378,8.25126838684082,-4.3568115234375,-10.129997253417969,1.5366994142532349,-9.84422779083252,2024-06-17T22:12:01.065
3.2500007152557373,7.54335355758667,-6.415759086608887,-2.7372028827667236,2.0083067417144775,-4.298233509063721,2024-06-17T22:12:01.085
4.889142036437988,5.414675712585449,-5.98177433013916,3.622727394104004,0.18038775026798248,1.0249121189117432,2024-06-17T22:12:01.105
3.5310401916503906,4.076507568359375,-3.495011806488037,6.667201519012451,-0.3016732335090637,4.20286226272583,2024-06-17T22:12:01.125
1.9562389850616455,2.6214942932128906,-0.8513782024383545,6.452089786529541,-0.13975469768047333,5.19133996963501,2024-06-17T22:12:01.145
0.7326198220252991,1.4631097316741943,0.761221170425415,4.453693389892578,0.47282859683036804,4.819172382354736,2024-06-17T22:12:01.165
-0.016401246190071106,0.6092886328697205,0.6475640535354614,3.259218692779541,0.9326376914978027,4.1252641677856445,2024-06-17T22:12:01.185
-0.2777886688709259,0.31261783838272095,0.36416953802108765,2.7652785778045654,1.0745396614074707,3.526026964187622,2024-06-17T22:12:01.205
-0.524234414100647,0.19480150938034058,0.26120269298553467,2.1542294025421143,1.8341708183288574,2.801194906234741,2024-06-17T22:12:01.225
-0.5534413456916809,0.14616340398788452,0.34056568145751953,1.3476773500442505,2.564082145690918,2.279022693634033,2024-06-17T22:12:01.245
-0.3189166784286499,0.16337502002716064,0.1848280429840088,0.9964101314544678,2.703064441680908,2.1021554470062256,2024-06-17T22:12:01.264
-0.14474359154701233,0.2168353796005249,-0.01525568962097168,1.1756535768508911,2.0520501136779785,2.124513626098633,2024-06-17T22:12:01.284
-0.198256254196167,0.24140244722366333,-0.20095837116241455,1.311501145362854,1.8547618389129639,2.149167060852051,2024-06-17T22:12:01.304
-0.34314975142478943,0.23096758127212524,-0.2189759612083435,1.122761607170105,2.3397364616394043,2.036173105239868,2024-06-17T22:12:01.324
-0.3189826011657715,0.2859392762184143,-0.21409159898757935,0.8221231698989868,2.9665098190307617,2.0228068828582764,2024-06-17T22:12:01.344
-0.2019929587841034,0.32354211807250977,-0.1888177990913391,0.7009872794151306,3.077878475189209,2.164304494857788,2024-06-17T22:12:01.364
-0.19353613257408142,0.31536805629730225,-0.31059592962265015,1.0872470140457153,2.6873939037323,2.3409674167633057,2024-06-17T22:12:01.384
-0.2535231113433838,0.25604766607284546,-0.29691457748413086,1.4801987409591675,2.312690496444702,2.391740322113037,2024-06-17T22:12:01.404
-0.40541091561317444,0.19782757759094238,-0.1478283405303955,1.3852328062057495,2.3488543033599854,2.1460318565368652,2024-06-17T22:12:01.424
-0.38093799352645874,0.20531439781188965,-0.015597820281982422,0.8650917410850525,2.7358617782592773,1.9620506763458252,2024-06-17T22:12:01.444
-0.2126128077507019,0.24456584453582764,0.03288060426712036,0.4093363583087921,2.851806163787842,2.102360486984253,2024-06-17T22:12:01.464
-0.19662323594093323,0.26447468996047974,-0.17342835664749146,0.7098299264907837,2.3208632469177246,2.335707902908325,2024-06-17T22:12:01.484
-0.3891913592815399,0.216505229473114,-0.31092381477355957,1.2890325784683228,1.8462942838668823,2.3035712242126465,2024-06-17T22:12:01.504
-0.5540977120399475,0.1858370304107666,-0.14822888374328613,1.4068512916564941,1.7777653932571411,2.103728771209717,2024-06-17T22:12:01.524
-0.5859214067459106,0.15624785423278809,0.06022709608078003,1.1087473630905151,1.927484154701233,1.9748191833496094,2024-06-17T22:12:01.544
-0.5939556956291199,0.13935774564743042,0.09248495101928711,0.9426128268241882,1.969722032546997,1.9194797277450562,2024-06-17T22:12:01.564
-0.5860579609870911,0.12991857528686523,0.12652170658111572,0.9438578486442566,1.7302300930023193,1.8882137537002563,2024-06-17T22:12:01.584
-0.6230998039245605,0.13964849710464478,0.19756591320037842,0.9804728627204895,1.3668409585952759,1.835487961769104,2024-06-17T22:12:01.604
-0.7102432250976562,0.15063166618347168,0.21270805597305298,1.1634128093719482,0.9791350960731506,1.788966178894043,2024-06-17T22:12:01.624
-0.818580150604248,0.13596433401107788,0.22493058443069458,1.3905811309814453,0.6975665092468262,1.706697940826416,2024-06-17T22:12:01.644
-0.9379130601882935,0.1329171061515808,0.43387168645858765,1.3261780738830566,0.32299351692199707,1.6357083320617676,2024-06-17T22:12:01.664
-1.1329491138458252,0.17388206720352173,0.5643175840377808,1.1002126932144165,-0.07036411017179489,1.4464528560638428,2024-06-17T22:12:01.684
-1.3435969352722168,0.20526278018951416,0.7089921832084656,0.6778531074523926,-0.6413654088973999,1.0908688306808472,2024-06-17T22:12:01.704
-1.4838742017745972,0.30931556224823,0.6425597071647644,0.4238666892051697,-0.908197283744812,0.8242906332015991,2024-06-17T22:12:01.724
-1.5328422784805298,0.3850632905960083,0.5701513290405273,0.24139058589935303,-1.082627296447754,0.6089069247245789,2024-06-17T22:12:01.743
-1.5603601932525635,0.37637925148010254,0.7439470291137695,-0.38905009627342224,-1.4326497316360474,0.29709306359291077,2024-06-17T22:12:01.763
-1.748220443725586,0.37058401107788086,0.7412281632423401,-0.9055988788604736,-1.9739205837249756,-0.06509102880954742,2024-06-17T22:12:01.783
-2.09844970703125,0.28624647855758667,0.4769781231880188,-0.5569247007369995,-3.5325582027435303,-0.591630220413208,2024-06-17T22:12:01.804
-2.75467848777771,0.00039589405059814453,0.3780372440814972,-0.12627995014190674,-5.620628356933594,-2.1374142169952393,2024-06-17T22:12:01.823
-2.848256826400757,0.10305172204971313,0.7116985321044922,-1.150591254234314,-6.377192497253418,-3.6934542655944824,2024-06-17T22:12:01.844
-2.880352735519409,0.5328296422958374,1.35932195186615,-3.8516881465911865,-5.872189998626709,-5.410445213317871,2024-06-17T22:12:01.863
-3.0733706951141357,1.3582890033721924,1.8611853122711182,-7.227754592895508,-6.3104987144470215,-7.699673652648926,2024-06-17T22:12:01.884
-3.374152660369873,2.7693841457366943,1.3763645887374878,-10.112972259521484,-5.828236103057861,-10.047219276428223,2024-06-17T22:12:01.903
-2.7568674087524414,4.564067363739014,-0.7010060548782349,-10.209416389465332,-3.4827229976654053,-11.582992553710938,2024-06-17T22:12:01.923
-1.0349195003509521,5.4396748542785645,-2.750514030456543,-7.358541488647461,-2.592324733734131,-11.67578125,2024-06-17T22:12:01.943
1.8974018096923828,5.764767646789551,-3.7162630558013916,-4.857424259185791,-1.6508538722991943,-8.5363130569458,2024-06-17T22:12:01.963
4.152651309967041,5.399186611175537,-4.506312370300293,-1.6763114929199219,-0.3903909921646118,-3.3631739616394043,2024-06-17T22:12:01.983
4.780697822570801,3.8652868270874023,-4.152264595031738,2.0187220573425293,-0.8019656538963318,1.1227153539657593,2024-06-17T22:12:02.003
3.6163992881774902,2.4038002490997314,-2.1749582290649414,3.6625852584838867,-1.9883763790130615,3.4880449771881104,2024-06-17T22:12:02.023
2.0305118560791016,1.488313913345337,-0.7595520615577698,3.3018147945404053,-1.4200400114059448,4.234727382659912,2024-06-17T22:12:02.043
0.8291391134262085,0.8595871329307556,-0.19900596141815186,2.478144645690918,-0.32620006799697876,4.121301174163818,2024-06-17T22:12:02.063
-0.09649616479873657,0.28985273838043213,0.008297204971313477,1.9264591932296753,0.24527566134929657,3.314852237701416,2024-06-17T22:12:02.083
-0.41357481479644775,0.0143049955368042,-0.01595979928970337,1.5375581979751587,0.8071515560150146,2.5537021160125732,2024-06-17T22:12:02.103
-0.4022877812385559,-0.055531084537506104,0.17861402034759521,0.8834379315376282,1.2930901050567627,1.9894263744354248,2024-06-17T22:12:02.123
-0.21724751591682434,0.0003362894058227539,0.16643834114074707,0.3574497401714325,1.7123124599456787,1.853997826576233,2024-06-17T22:12:02.143
-0.26186713576316833,0.023423075675964355,-0.08876210451126099,0.3746282160282135,1.733293890953064,1.648482084274292,2024-06-17T22:12:02.163
-0.11532771587371826,0.1295749545097351,-0.27460694313049316,0.6331453919410706,1.4359121322631836,1.6418019533157349,2024-06-17T22:12:02.183
0.03524896502494812,0.2041580080986023,-0.39738476276397705,1.0603464841842651,1.2322757244110107,1.9942042827606201,2024-06-17T22:12:02.203
-0.26766592264175415,0.14806509017944336,-0.47454172372817993,1.5713719129562378,1.142503261566162,1.9737358093261719,2024-06-17T22:12:02.223
-0.41779690980911255,0.1431499719619751,-0.30902284383773804,1.4687268733978271,1.5611648559570312,1.784098505973816,2024-06-17T22:12:02.243
-0.40310704708099365,0.17612648010253906,-0.0925372838973999,0.8048635721206665,2.3915648460388184,1.5748058557510376,2024-06-17T22:12:02.263
-0.25484955310821533,0.16976481676101685,-0.10212767124176025,0.5753346681594849,2.602095127105713,1.6128826141357422,2024-06-17T22:12:02.283
-0.22087040543556213,0.14418357610702515,-0.24997550249099731,1.1158727407455444,1.9911671876907349,1.7237269878387451,2024-06-17T22:12:02.302
-0.4408692717552185,0.0712929368019104,-0.21229588985443115,1.4655258655548096,1.6971594095230103,1.382768988609314,2024-06-17T22:12:02.323
-0.45471906661987305,0.056755125522613525,0.09898412227630615,0.7352142930030823,2.438175678253174,1.007102608680725,2024-06-17T22:12:02.343
-0.15192914009094238,0.13398230075836182,0.2226545214653015,-0.1603280007839203,3.20331072807312,1.0861642360687256,2024-06-17T22:12:02.363
0.033126503229141235,0.19297420978546143,0.012986540794372559,0.0035462428350001574,2.832517623901367,1.5025043487548828,2024-06-17T22:12:02.383
-0.10855987668037415,0.1551586389541626,-0.1613331437110901,0.8273596167564392,1.7940808534622192,1.7091922760009766,2024-06-17T22:12:02.402
-0.36842671036720276,0.07574629783630371,-0.015961408615112305,1.0884534120559692,1.2516424655914307,1.4626268148422241,2024-06-17T22:12:02.423
-0.4125216007232666,0.042015254497528076,0.18470841646194458,0.49001067876815796,1.7424880266189575,1.134256362915039,2024-06-17T22:12:02.443
-0.18465787172317505,0.10831302404403687,0.24676990509033203,-0.29584801197052,2.4345972537994385,1.2992607355117798,2024-06-17T22:12:02.462
-0.08149343729019165,0.13940465450286865,0.01748114824295044,-0.06214974448084831,2.044663190841675,1.7591872215270996,2024-06-17T22:12:02.482
-0.34155818819999695,0.061218202114105225,-0.24552929401397705,0.9789983034133911,1.132073998451233,1.8282737731933594,2024-06-17T22:12:02.502
-0.5986324548721313,-0.006878018379211426,-0.0644310712814331,1.375436782836914,0.8654725551605225,1.472449779510498,2024-06-17T22:12:02.522
-0.537439227104187,0.029115498065948486,0.3041152358055115,0.8013057708740234,1.2631926536560059,1.2910077571868896,2024-06-17T22:12:02.542
-0.43608877062797546,0.0669524073600769,0.4409050941467285,0.194107785820961,1.4318217039108276,1.3808459043502808,2024-06-17T22:12:02.562
-0.5273832082748413,0.07830452919006348,0.3347824811935425,0.0986228883266449,1.0588668584823608,1.4658043384552002,2024-06-17T22:12:02.582
-0.8523541688919067,0.1498824954032898,0.26222652196884155,0.2921511232852936,0.5555014610290527,1.4071658849716187,2024-06-17T22:12:02.602
-1.082686424255371,0.1589553952217102,0.34684526920318604,0.30056050419807434,0.09738186746835709,1.392381191253662,2024-06-17T22:12:02.622
-1.281379222869873,0.2276676893234253,0.4035671353340149,0.2619096636772156,-0.1512080878019333,1.4896585941314697,2024-06-17T22:12:02.642
-1.5480899810791016,0.3536476492881775,0.42100393772125244,0.45007818937301636,-0.5513973236083984,1.566170573234558,2024-06-17T22:12:02.662
-1.9363532066345215,0.35456717014312744,0.6747257113456726,0.5579613447189331,-1.5310354232788086,1.2426111698150635,2024-06-17T22:12:02.682
-2.092966079711914,0.30339211225509644,1.0047392845153809,0.25623732805252075,-2.5493950843811035,0.8004852533340454,2024-06-17T22:12:02.702
-2.2335286140441895,0.15174925327301025,1.3881065845489502,-0.02230609953403473,-4.244097709655762,0.38942068815231323,2024-06-17T22:12:02.722
-2.5964651107788086,-0.0372697114944458,1.832942247390747,0.12079102545976639,-7.721233367919922,-0.09609660506248474,2024-06-17T22:12:02.742
-3.043790817260742,0.07380765676498413,2.76747989654541,-1.328221321105957,-11.37335205078125,-0.7479101419448853,2024-06-17T22:12:02.762
-3.935250997543335,0.6045606136322021,3.825373411178589,-6.410571098327637,-11.275943756103516,-2.473708391189575,2024-06-17T22:12:02.782
-5.209285736083984,1.7411582469940186,4.23847770690918,-14.143194198608398,-9.389915466308594,-6.290616035461426,2024-06-17T22:12:02.802
-5.961958885192871,5.125917911529541,0.10872000455856323,-16.852741241455078,-4.567567825317383,-10.4434814453125,2024-06-17T22:12:02.822
-3.7421059608459473,7.436919212341309,-5.691549777984619,-12.277002334594727,0.0038818162865936756,-11.69809627532959,2024-06-17T22:12:02.842
0.16986390948295593,7.1114420890808105,-7.099833965301514,-6.367728233337402,2.544740915298462,-8.956838607788086,2024-06-17T22:12:02.862
3.0113983154296875,5.006287574768066,-6.75997257232666,-0.30280831456184387,2.300067663192749,-4.749093532562256,2024-06-17T22:12:02.882
3.5713086128234863,3.367471933364868,-4.120113372802734,3.141153335571289,0.5650443434715271,-1.000901222229004,2024-06-17T22:12:02.902
2.2813215255737305,2.1793055534362793,-2.2280325889587402,4.766073226928711,0.09939149022102356,0.4238717257976532,2024-06-17T22:12:02.921
1.5958163738250732,1.3626906871795654,0.1721261739730835,3.2238755226135254,0.6903762221336365,0.7869983911514282,2024-06-17T22:12:02.941
1.0954848527908325,0.9443255662918091,0.871195912361145,1.435797929763794,1.0903161764144897,0.9212836027145386,2024-06-17T22:12:02.962
0.9251644015312195,0.6850405335426331,0.5381054282188416,0.8462646007537842,0.906900942325592,1.2040470838546753,2024-06-17T22:12:02.981
0.5456762313842773,0.49163877964019775,0.22915881872177124,0.9343781471252441,0.5540666580200195,1.2357193231582642,2024-06-17T22:12:03.001
0.3490128815174103,0.45623457431793213,0.18974649906158447,0.7344064116477966,0.6340882182121277,1.232549786567688,2024-06-17T22:12:03.021
0.2452181577682495,0.47011125087738037,0.1527416706085205,0.380592942237854,0.8099772930145264,1.17766535282135,2024-06-17T22:12:03.041
0.3313286304473877,0.5218477845191956,-0.032959043979644775,0.13569478690624237,0.9232015609741211,1.2686395645141602,2024-06-17T22:12:03.061
0.4511042833328247,0.6434388756752014,-0.29341834783554077,0.1473766565322876,1.1158992052078247,1.6560791730880737,2024-06-17T22:12:03.081
0.43137359619140625,0.6761839985847473,-0.5574575662612915,0.5534772276878357,1.1824541091918945,2.1231443881988525,2024-06-17T22:12:03.101
0.22308477759361267,0.6263379454612732,-0.5778318047523499,0.7932910323143005,1.2940844297409058,2.2463181018829346,2024-06-17T22:12:03.121
0.09953555464744568,0.5392469763755798,-0.4656864106655121,0.628182053565979,1.5712212324142456,2.232598304748535,2024-06-17T22:12:03.141
0.09425552189350128,0.5736424326896667,-0.45139598846435547,0.2746036946773529,2.2737185955047607,2.413050651550293,2024-06-17T22:12:03.161
0.15327274799346924,0.5177160501480103,-0.6468838453292847,0.542752742767334,2.5129024982452393,2.7549140453338623,2024-06-17T22:12:03.181
-0.04559263586997986,0.34406524896621704,-0.6068890690803528,0.87301105260849,2.2123820781707764,2.6248066425323486,2024-06-17T22:12:03.201
-0.19887173175811768,0.24622255563735962,-0.34338194131851196,0.32668137550354004,2.413975238800049,2.263420343399048,2024-06-17T22:12:03.221
-0.1942327320575714,0.23758208751678467,-0.3062888979911804,-0.5330991148948669,2.9957704544067383,2.1273391246795654,2024-06-17T22:12:03.241
-0.005368173122406006,0.1952526569366455,-0.6372097730636597,-0.5732414722442627,3.5097646713256836,2.4701132774353027,2024-06-17T22:12:03.261
-0.13515692949295044,0.14317965507507324,-0.7869526147842407,-0.008095111697912216,3.3869659900665283,2.6553544998168945,2024-06-17T22:12:03.281
-0.28325268626213074,0.17768824100494385,-0.61293625831604,0.22627641260623932,2.966641664505005,2.6640419960021973,2024-06-17T22:12:03.301
-0.2846335768699646,0.24393600225448608,-0.4564749002456665,0.0806315615773201,2.7065093517303467,2.8427577018737793,2024-06-17T22:12:03.321
-0.22113341093063354,0.30810362100601196,-0.5687859058380127,0.4747772514820099,2.3549444675445557,3.3864827156066895,2024-06-17T22:12:03.341
-0.5055833458900452,0.27921777963638306,-0.8457702994346619,1.5551787614822388,2.3767480850219727,3.6786093711853027,2024-06-17T22:12:03.361
-0.899684488773346,0.27328503131866455,-0.6174030900001526,2.22548246383667,2.530280113220215,3.509624481201172,2024-06-17T22:12:03.381
-1.1562141180038452,0.23288118839263916,-0.2832835912704468,2.344667911529541,2.6160953044891357,3.036226272583008,2024-06-17T22:12:03.401
-1.157539963722229,0.17786580324172974,0.019571661949157715,2.153388738632202,2.5562877655029297,2.69490122795105,2024-06-17T22:12:03.421
-1.2166074514389038,0.05320197343826294,0.14049047231674194,2.0450191497802734,2.349372386932373,2.215660572052002,2024-06-17T22:12:03.440
-1.2309784889221191,0.04794663190841675,0.31899523735046387,1.8260730504989624,2.305250644683838,1.6498831510543823,2024-06-17T22:12:03.460
-1.0405890941619873,0.1341315507888794,0.47372007369995117,1.7034152746200562,2.1171634197235107,1.422073245048523,2024-06-17T22:12:03.481
-1.011152744293213,0.20544642210006714,0.6765702366828918,1.5989066362380981,1.4549140930175781,1.1702650785446167,2024-06-17T22:12:03.500
-0.9835973978042603,0.35236412286758423,0.9380835294723511,1.363545298576355,0.5208140015602112,1.1897224187850952,2024-06-17T22:12:03.520
-1.0632898807525635,0.5595964789390564,1.0115574598312378,1.089859962463379,-0.03709638863801956,1.536421537399292,2024-06-17T22:12:03.540
-1.4775296449661255,0.5132616758346558,1.0052974224090576,0.9104763865470886,-0.3483806848526001,1.5594311952590942,2024-06-17T22:12:03.560
-1.8953068256378174,0.5965144038200378,1.115147352218628,0.6674360632896423,-0.7939566969871521,1.4072065353393555,2024-06-17T22:12:03.580
-2.0745913982391357,0.7902951836585999,1.2457338571548462,0.33638688921928406,-1.5427863597869873,1.267702341079712,2024-06-17T22:12:03.601
-2.0667805671691895,0.9984201788902283,1.2899038791656494,-0.19047169387340546,-2.0596420764923096,1.286186933517456,2024-06-17T22:12:03.620
-1.7633938789367676,1.1807527542114258,1.422491192817688,-1.2662255764007568,-2.2825000286102295,1.6636314392089844,2024-06-17T22:12:03.640
-1.4897217750549316,1.3340022563934326,1.327436089515686,-2.2513487339019775,-2.693837881088257,2.157646894454956,2024-06-17T22:12:03.660
-1.8789045810699463,1.054403305053711,1.4132113456726074,-2.8182029724121094,-4.83908224105835,1.5502835512161255,2024-06-17T22:12:03.680
-2.3196897506713867,0.7881962060928345,1.8713914155960083,-4.1355695724487305,-7.226301670074463,0.7844579815864563,2024-06-17T22:12:03.700
-3.1276705265045166,1.0445730686187744,2.4149692058563232,-6.502819538116455,-8.6365385055542,-0.3068591356277466,2024-06-17T22:12:03.720
-4.268311023712158,1.6045560836791992,2.869293212890625,-10.773747444152832,-8.1768217086792,-2.957212209701538,2024-06-17T22:12:03.740
-5.70529842376709,2.8105201721191406,3.257521867752075,-17.23863983154297,-7.906793594360352,-7.574332237243652,2024-06-17T22:12:03.760
-6.708318710327148,7.049210548400879,0.856251060962677,-22.862367630004883,-1.1935440301895142,-12.384984970092773,2024-06-17T22:12:03.780
-5.769320487976074,11.064868927001953,-4.823420524597168,-18.615760803222656,8.196953773498535,-17.224571228027344,2024-06-17T22:12:03.800
0.5949745774269104,11.295226097106934,-7.3990302085876465,-7.6630072593688965,10.939067840576172,-13.814913749694824,2024-06-17T22:12:03.820
7.416174411773682,8.37858772277832,-4.833333969116211,1.2236567735671997,3.468536376953125,-3.054749011993408,2024-06-17T22:12:03.840
6.019797325134277,4.978214740753174,-3.2779321670532227,6.963291168212891,-1.7234771251678467,2.80891489982605,2024-06-17T22:12:03.860
2.2399911880493164,2.7861688137054443,-0.9118678569793701,7.025485515594482,-1.6349515914916992,3.2196009159088135,2024-06-17T22:12:03.880
0.7387298345565796,1.5022697448730469,1.1359820365905762,3.9116411209106445,0.08777257055044174,2.5032081604003906,2024-06-17T22:12:03.900
0.016040921211242676,0.6697471737861633,0.46463775634765625,2.7169079780578613,1.6463631391525269,1.7334380149841309,2024-06-17T22:12:03.920
0.3799394369125366,0.5534229278564453,0.27868402004241943,2.838036060333252,1.5446360111236572,1.8545111417770386,2024-06-17T22:12:03.940
0.1379404515028,0.33073878288269043,0.7956033945083618,2.6252543926239014,0.39088791608810425,1.5097417831420898,2024-06-17T22:12:03.960
0.09835150837898254,0.394400954246521,0.8278145790100098,1.6122913360595703,0.3849957287311554,1.1719270944595337,2024-06-17T22:12:03.979
0.002033546566963196,0.4776204228401184,0.5163641571998596,0.5254738926887512,1.3825942277908325,0.9747660756111145,2024-06-17T22:12:04.000
0.037099361419677734,0.5543031692504883,0.007863819599151611,0.055132877081632614,2.367203712463379,0.9799447059631348,2024-06-17T22:12:04.019
0.2208571583032608,0.6516449451446533,-0.2977587580680847,0.13400477170944214,2.379784107208252,1.2040684223175049,2024-06-17T22:12:04.040
0.34254708886146545,0.7904394865036011,-0.48864156007766724,0.5280023813247681,1.8833664655685425,1.5754437446594238,2024-06-17T22:12:04.059
0.47634631395339966,0.8713610768318176,-0.6626502275466919,0.825807511806488,2.179562568664551,2.1951093673706055,2024-06-17T22:12:04.079
0.4517412483692169,0.8427440524101257,-0.6573704481124878,0.5833171010017395,3.033839464187622,2.692838191986084,2024-06-17T22:12:04.099
0.2974180281162262,0.8805280923843384,-0.6715049743652344,0.47914132475852966,3.1937155723571777,2.9788713455200195,2024-06-17T22:12:04.119
0.32763102650642395,0.9070156216621399,-0.793170690536499,0.7753649353981018,2.842946767807007,3.443223476409912,2024-06-17T22:12:04.139
0.16487857699394226,0.7854784727096558,-0.9696899056434631,1.2982563972473145,2.577038288116455,3.738600254058838,2024-06-17T22:12:04.159
-0.17660510540008545,0.5894513130187988,-0.9915871024131775,1.5141087770462036,2.8752806186676025,3.637004852294922,2024-06-17T22:12:04.179
-0.43821531534194946,0.49582821130752563,-0.8143042922019958,1.0829572677612305,3.737590789794922,3.35927414894104,2024-06-17T22:12:04.199
-0.40994638204574585,0.467540979385376,-0.8076587319374084,0.8741968274116516,4.462718963623047,3.4550490379333496,2024-06-17T22:12:04.219
-0.4113224446773529,0.43990254402160645,-0.8275108337402344,1.2922674417495728,4.2192535400390625,3.749952793121338,2024-06-17T22:12:04.239
-0.7149873971939087,0.38749396800994873,-0.8142665028572083,1.936049222946167,3.7931463718414307,3.7117362022399902,2024-06-17T22:12:04.259
-0.9115326404571533,0.46486544609069824,-0.4513312578201294,1.7629990577697754,3.789294958114624,3.530048370361328,2024-06-17T22:12:04.279
-0.9187659025192261,0.4968445301055908,-0.21426671743392944,1.5161882638931274,3.4970879554748535,3.703303337097168,2024-06-17T22:12:04.299
-1.2409355640411377,0.35709619522094727,-0.3935750722885132,2.14788818359375,2.8517725467681885,3.636920928955078,2024-06-17T22:12:04.319
-1.662521243095398,0.17616939544677734,-0.30151981115341187,2.6739511489868164,2.885411262512207,2.9225804805755615,2024-06-17T22:12:04.339
-1.6318241357803345,0.14667755365371704,0.2505451440811157,2.0996012687683105,3.1263070106506348,2.3351855278015137,2024-06-17T22:12:04.359
-1.4046225547790527,0.3410504460334778,0.6791182160377502,1.3382225036621094,2.591360569000244,2.3744752407073975,2024-06-17T22:12:04.379
-1.6483166217803955,0.31563735008239746,0.47847890853881836,1.7416481971740723,1.0871837139129639,2.267789363861084,2024-06-17T22:12:04.399
-2.2598862648010254,0.43052738904953003,0.4129919409751892,2.5952305793762207,-0.2806282341480255,1.6314220428466797,2024-06-17T22:12:04.419
-2.4240221977233887,0.5808455944061279,0.9164332151412964,2.44711971282959,-0.9994921088218689,1.0727254152297974,2024-06-17T22:12:04.439
-2.427227735519409,0.8298923969268799,1.3347771167755127,1.2893065214157104,-0.5367432832717896,0.8177058100700378,2024-06-17T22:12:04.459
-2.725440502166748,0.7970677614212036,1.6383336782455444,0.04841369763016701,-0.3235495984554291,0.06526258587837219,2024-06-17T22:12:04.479
-2.845111131668091,0.5709183216094971,2.165379762649536,-1.0656769275665283,-1.6032378673553467,-0.9845767617225647,2024-06-17T22:12:04.499
-3.131744146347046,0.6241526007652283,2.791429281234741,-1.2881666421890259,-5.975457191467285,-1.6481374502182007,2024-06-17T22:12:04.519
-4.0231122970581055,0.5952434539794922,3.3743276596069336,-2.541184902191162,-10.950754165649414,-2.803712844848633,2024-06-17T22:12:04.539
-5.135695457458496,1.3421845436096191,4.143959045410156,-8.152576446533203,-11.652491569519043,-4.886321067810059,2024-06-17T22:12:04.559
-6.134011268615723,3.1967549324035645,2.7720954418182373,-13.347783088684082,-8.108634948730469,-7.753495693206787,2024-06-17T22:12:04.579
-5.850830078125,5.125430583953857,-1.050630807876587,-13.52109146118164,-4.729827404022217,-10.585881233215332,2024-06-17T22:12:04.599
-4.01940393447876,6.51812744140625,-4.382070064544678,-10.897970199584961,-1.881133794784546,-11.57569694519043,2024-06-17T22:12:04.619
-1.0038777589797974,6.674118995666504,-6.905238628387451,-5.899242877960205,0.11700768768787384,-10.404581069946289,2024-06-17T22:12:04.639
2.7117385864257812,5.686108112335205,-6.871199607849121,-1.1401232481002808,1.0162079334259033,-6.317392349243164,2024-06-17T22:12:04.659
3.616032838821411,3.813939332962036,-5.363671779632568,2.5341007709503174,0.8344534039497375,-2.776094436645508,2024-06-17T22:12:04.679
3.054879665374756,2.5956082344055176,-3.1689293384552,4.520270347595215,0.4427822530269623,-0.44538944959640503,2024-06-17T22:12:04.698
2.171056032180786,1.70055091381073,-0.9014373421669006,4.556181907653809,0.44075870513916016,0.49580198526382446,2024-06-17T22:12:04.718
1.359117865562439,0.9409669637680054,0.8698302507400513,2.8633668422698975,0.6948142051696777,0.4931376278400421,2024-06-17T22:12:04.738
1.117469072341919,0.749809205532074,1.1289126873016357,1.3468517065048218,0.8314284086227417,0.561363697052002,2024-06-17T22:12:04.758
0.8979705572128296,0.7112007141113281,0.6492873430252075,0.9776604175567627,0.5761078596115112,0.7667484879493713,2024-06-17T22:12:04.778
0.7853068709373474,0.7022192478179932,0.42807281017303467,1.0106663703918457,0.17969608306884766,1.0037468671798706,2024-06-17T22:12:04.798
0.6918609142303467,0.6881139874458313,0.3845168352127075,0.8492249250411987,-0.007101479917764664,1.1652400493621826,2024-06-17T22:12:04.818
0.6756585240364075,0.7349961400032043,0.19670826196670532,0.47496527433395386,0.2558804750442505,1.3323421478271484,2024-06-17T22:12:04.838
0.8658005595207214,0.9755042195320129,-0.10033637285232544,0.2888652980327606,0.2548217475414276,1.8304909467697144,2024-06-17T22:12:04.858
0.9532518982887268,1.1736202239990234,-0.5098435878753662,0.6290295124053955,-0.05232403427362442,2.526704788208008,2024-06-17T22:12:04.878
0.7954205870628357,1.220297932624817,-0.9407745599746704,0.9681380391120911,0.4544573426246643,3.0369350910186768,2024-06-17T22:12:04.898
0.6629917621612549,1.1977657079696655,-1.0669136047363281,1.1052730083465576,1.2344752550125122,3.3639769554138184,2024-06-17T22:12:04.918
0.6098458170890808,1.1032041311264038,-1.0002444982528687,1.1575168371200562,1.5659857988357544,3.7042124271392822,2024-06-17T22:12:04.938
0.5885192155838013,1.0467060804367065,-1.0651617050170898,1.442717432975769,1.535576581954956,4.198319911956787,2024-06-17T22:12:04.958
0.2545129060745239,0.9578015208244324,-1.157531499862671,1.656319499015808,2.1216492652893066,4.511858940124512,2024-06-17T22:12:04.978
-0.2573741376399994,0.7973901033401489,-1.1970431804656982,1.7898670434951782,3.2307653427124023,4.4803242683410645,2024-06-17T22:12:04.998
-0.6117064952850342,0.5458403825759888,-1.3392422199249268,2.560628652572632,3.783842086791992,4.384849548339844,2024-06-17T22:12:05.018
-0.9826759099960327,0.3604915738105774,-1.031372308731079,3.019237756729126,4.000706195831299,4.030041217803955,2024-06-17T22:12:05.037
-1.2955180406570435,0.15327012538909912,-0.5358607172966003,2.419893503189087,4.752535343170166,3.3845109939575195,2024-06-17T22:12:05.057
-1.2781537771224976,0.04846733808517456,-0.30283915996551514,1.8638805150985718,4.97117280960083,3.262646436691284,2024-06-17T22:12:05.078
-1.5241763591766357,-0.007947921752929688,-0.533475399017334,2.328587055206299,4.431473731994629,2.959700345993042,2024-06-17T22:12:05.097
-1.820075511932373,-0.06739610433578491,-0.529120683670044,2.740140914916992,4.275148391723633,2.104081869125366,2024-06-17T22:12:05.118
-1.5495808124542236,0.0736035704612732,-0.11307084560394287,2.040900945663452,5.089297771453857,1.5108840465545654,2024-06-17T22:12:05.137
-1.0227535963058472,0.34148257970809937,0.21836885809898376,1.1068134307861328,5.359398365020752,1.8194389343261719,2024-06-17T22:12:05.157
-1.0863685607910156,0.3648247718811035,-0.02933564782142639,1.3833131790161133,4.30959939956665,1.9673902988433838,2024-06-17T22:12:05.177
-1.386869192123413,0.34192031621932983,-0.24495810270309448,2.074491024017334,3.352536201477051,1.4861592054367065,2024-06-17T22:12:05.197
-1.3419945240020752,0.45693063735961914,0.09543424844741821,1.6719517707824707,3.598754405975342,1.0583508014678955,2024-06-17T22:12:05.217
-1.3022605180740356,0.6893824338912964,0.4377031922340393,0.8721036911010742,4.046640872955322,1.1174808740615845,2024-06-17T22:12:05.237
-1.6996517181396484,0.7882257699966431,0.5763086676597595,0.6570570468902588,3.2303719520568848,0.9402974247932434,2024-06-17T22:12:05.257
-2.3483457565307617,0.7525738477706909,0.8955019116401672,0.5813528299331665,0.7860839366912842,0.20252513885498047,2024-06-17T22:12:05.278
-3.2307820320129395,0.8305260539054871,0.8923551440238953,0.7429147362709045,-1.3642505407333374,-1.2551194429397583,2024-06-17T22:12:05.297
-3.5181469917297363,0.7641102075576782,0.9448689818382263,0.47051480412483215,-1.854182481765747,-2.119138717651367,2024-06-17T22:12:05.317
-3.9349915981292725,0.77972012758255,1.2671369314193726,0.42472538352012634,-4.223890781402588,-3.070272445678711,2024-06-17T22:12:05.337
-4.384487628936768,0.653518795967102,1.699498176574707,-0.1996109038591385,-8.31137466430664,-4.2194342613220215,2024-06-17T22:12:05.357
-4.836068630218506,0.9590195417404175,2.3392531871795654,-3.9070348739624023,-9.321249961853027,-5.607967376708984,2024-06-17T22:12:05.377
-5.758641242980957,1.5933783054351807,1.7623409032821655,-7.997269153594971,-8.761509895324707,-8.195181846618652,2024-06-17T22:12:05.397
-5.272218704223633,3.251696825027466,-1.2711918354034424,-8.882429122924805,-5.874065399169922,-10.116477012634277,2024-06-17T22:12:05.417
-3.591203451156616,4.098952293395996,-4.1305694580078125,-5.713028907775879,-5.5723042488098145,-10.906495094299316,2024-06-17T22:12:05.437
-0.7267107367515564,4.828738689422607,-4.638484001159668,-4.099255084991455,-4.5242486000061035,-9.996108055114746,2024-06-17T22:12:05.457
1.4987636804580688,5.025519371032715,-5.518050670623779,-2.9812395572662354,-0.5713262557983398,-8.571089744567871,2024-06-17T22:12:05.477
3.9706852436065674,4.635831832885742,-5.570955753326416,0.411364883184433,0.5809493064880371,-5.065608024597168,2024-06-17T22:12:05.497
4.636999607086182,3.2476933002471924,-3.6338019371032715,2.915922164916992,-0.37018653750419617,-1.6273763179779053,2024-06-17T22:12:05.517
3.6987247467041016,2.2024385929107666,-1.8767509460449219,3.747774600982666,-0.3478025496006012,0.6330728530883789,2024-06-17T22:12:05.537
2.2112696170806885,1.3577141761779785,-0.5771063566207886,3.5260424613952637,0.4660995602607727,1.3066730499267578,2024-06-17T22:12:05.556
1.354142665863037,0.8356727361679077,0.48560428619384766,2.7019824981689453,0.7138914465904236,1.2629433870315552,2024-06-17T22:12:05.577
0.7572855949401855,0.6495975852012634,0.90537428855896,1.6428799629211426,1.032617211341858,0.8869380354881287,2024-06-17T22:12:05.596
0.709237813949585,0.726757824420929,0.8344311118125916,0.893286406993866,1.4585915803909302,0.9195043444633484,2024-06-17T22:12:05.617
0.7624079585075378,0.7853143215179443,0.7615654468536377,0.7263638377189636,0.9489847421646118,1.2894686460494995,2024-06-17T22:12:05.637
0.8425633907318115,0.8836163878440857,0.6262861490249634,0.7382625937461853,0.29297977685928345,1.920271873474121,2024-06-17T22:12:05.657
0.6940097212791443,0.8716844916343689,0.47241657972335815,0.5288910865783691,0.10918944329023361,2.3742499351501465,2024-06-17T22:12:05.676
0.5582567453384399,0.8215603232383728,0.38499319553375244,0.1268061399459839,-0.08828982710838318,2.5857558250427246,2024-06-17T22:12:05.696
0.5345249176025391,0.8747956156730652,0.030777812004089355,-0.23378479480743408,0.23348629474639893,2.7059123516082764,2024-06-17T22:12:05.717
0.5901896357536316,0.9188611507415771,-0.5063815116882324,-0.5109661221504211,1.532023310661316,2.8368141651153564,2024-06-17T22:12:05.736
0.7730135321617126,0.9062988758087158,-0.8044473528862,-0.6343001127243042,2.513836145401001,3.2365410327911377,2024-06-17T22:12:05.756
0.8524512052536011,0.8904125094413757,-1.067136287689209,-0.019915074110031128,2.222372531890869,3.8329639434814453,2024-06-17T22:12:05.776
0.8054729700088501,0.8799092769622803,-1.188156247138977,0.7868793606758118,1.8613150119781494,4.516779899597168,2024-06-17T22:12:05.796
0.4096861481666565,0.7474064230918884,-1.1914836168289185,1.3630224466323853,1.934287667274475,4.766543388366699,2024-06-17T22:12:05.816
-0.0020911842584609985,0.5553657412528992,-1.1017322540283203,1.5657833814620972,2.4131553173065186,4.660131454467773,2024-06-17T22:12:05.836
-0.2973725497722626,0.4758221507072449,-1.0680652856826782,1.525939702987671,3.222069025039673,4.473839282989502,2024-06-17T22:12:05.856
-0.5361080169677734,0.447293758392334,-1.0809904336929321,1.6643356084823608,3.596724271774292,4.260136604309082,2024-06-17T22:12:05.876
-0.7421258687973022,0.40448206663131714,-1.0475811958312988,2.0040175914764404,3.5004138946533203,4.021271228790283,2024-06-17T22:12:05.896
-0.9822170734405518,0.3203824758529663,-0.8819921612739563,2.290489435195923,3.319784641265869,3.6560769081115723,2024-06-17T22:12:05.916
-1.109193205833435,0.2931562662124634,-0.700872540473938,2.360989809036255,3.4179091453552246,3.2866580486297607,2024-06-17T22:12:05.936
-1.2530083656311035,0.22246849536895752,-0.46347731351852417,2.0888211727142334,3.7303552627563477,2.7635433673858643,2024-06-17T22:12:05.956
-1.205697774887085,0.22191905975341797,-0.216971755027771,1.8040026426315308,3.543104410171509,2.402740001678467,2024-06-17T22:12:05.976
-1.270110011100769,0.22128260135650635,-0.20516204833984375,1.991492509841919,2.9166297912597656,1.9670584201812744,2024-06-17T22:12:05.996
-1.2727216482162476,0.24291515350341797,-0.0799638032913208,2.0223116874694824,2.588719367980957,1.4863061904907227,2024-06-17T22:12:06.016
-1.173595905303955,0.2682507038116455,0.20439493656158447,1.524301528930664,2.6441917419433594,0.9987204670906067,2024-06-17T22:12:06.036
-0.9004722833633423,0.2730633616447449,0.39344239234924316,0.8486531376838684,2.782731533050537,0.7484642267227173,2024-06-17T22:12:06.056
-0.6378614902496338,0.34145474433898926,0.514385461807251,0.26135820150375366,2.4717729091644287,0.7923717498779297,2024-06-17T22:12:06.076
-0.5362370610237122,0.4905068874359131,0.4748469889163971,0.035909611731767654,1.5889301300048828,0.9583632946014404,2024-06-17T22:12:06.096
-0.6088067889213562,0.5677813291549683,0.3455796241760254,0.056604210287332535,0.7678831815719604,1.0175069570541382,2024-06-17T22:12:06.115
-0.6229768991470337,0.6398669481277466,0.319623738527298,-0.10942775011062622,0.5879749059677124,1.1437416076660156,2024-06-17T22:12:06.135
-0.7145895957946777,0.6572719216346741,0.35209959745407104,-0.29762282967567444,0.425305038690567,1.2312791347503662,2024-06-17T22:12:06.156
-0.9304283857345581,0.666224479675293,0.4290388226509094,-0.3870047330856323,-0.40783047676086426,1.1891728639602661,2024-06-17T22:12:06.175
-1.3591455221176147,0.6855584383010864,0.38732755184173584,-0.3087233304977417,-1.2781929969787598,0.8242998123168945,2024-06-17T22:12:06.196
-1.7173014879226685,0.6464334726333618,0.3726571202278137,-0.4852096140384674,-1.6631994247436523,0.1981881707906723,2024-06-17T22:12:06.215
-1.96470046043396,0.7071623206138611,0.45995044708251953,-1.0785835981369019,-1.4658994674682617,-0.5509832501411438,2024-06-17T22:12:06.235
-2.0750091075897217,0.7814390659332275,0.5578452944755554,-1.7531381845474243,-1.5158034563064575,-1.3461358547210693,2024-06-17T22:12:06.255
-2.1888811588287354,0.912738561630249,0.6669801473617554,-2.161754846572876,-2.6075122356414795,-2.093932628631592,2024-06-17T22:12:06.275
-2.6414215564727783,0.8601275086402893,0.6745719909667969,-2.2844090461730957,-4.544219017028809,-3.059065103530884,2024-06-17T22:12:06.295
-3.1910455226898193,0.6813197731971741,0.8895422220230103,-2.765377998352051,-6.946423053741455,-4.252382755279541,2024-06-17T22:12:06.316
-3.8532443046569824,0.7352246642112732,1.1308690309524536,-3.9921724796295166,-8.734801292419434,-5.562712669372559,2024-06-17T22:12:06.335
-4.705499649047852,1.1498498916625977,1.5578440427780151,-6.565529823303223,-9.341018676757812,-7.569639682769775,2024-06-17T22:12:06.355
-5.409965515136719,2.452895164489746,1.7708415985107422,-10.454933166503906,-9.234224319458008,-10.17182445526123,2024-06-17T22:12:06.375
-5.75296688079834,4.863794326782227,0.15689396858215332,-14.190401077270508,-4.8729634284973145,-12.583306312561035,2024-06-17T22:12:06.395
-4.154904365539551,7.0737080574035645,-4.567770957946777,-11.427507400512695,2.0904197692871094,-14.560616493225098,2024-06-17T22:12:06.415
0.5307086706161499,7.939882278442383,-6.81520938873291,-4.432215213775635,4.072281837463379,-11.739151954650879,2024-06-17T22:12:06.435
4.870247840881348,6.994842052459717,-4.8907880783081055,0.6173380613327026,1.441260814666748,-5.416388988494873,2024-06-17T22:12:06.455
5.8114728927612305,4.826292514801025,-3.7808618545532227,4.198603630065918,-1.0869882106781006,0.09533363580703735,2024-06-17T22:12:06.475
4.067037582397461,3.420527935028076,-2.3073556423187256,5.71530294418335,-1.40838623046875,3.1466526985168457,2024-06-17T22:12:06.495
2.0768818855285645,2.303941011428833,-0.8374390602111816,5.558720588684082,-0.5104880928993225,3.8636655807495117,2024-06-17T22:12:06.515
0.8889477252960205,1.3975799083709717,0.38976454734802246,4.052216053009033,0.5267714262008667,3.429741859436035,2024-06-17T22:12:06.535
0.2803120017051697,0.8059257864952087,0.5623982548713684,2.9561188220977783,1.185404658317566,2.6247777938842773,2024-06-17T22:12:06.555
0.3253934681415558,0.600414514541626,0.5914968252182007,2.1822547912597656,1.6542513370513916,2.2068026065826416,2024-06-17T22:12:06.575
0.44493603706359863,0.6399078369140625,0.6404712796211243,1.871303677558899,1.1705578565597534,2.0761587619781494,2024-06-17T22:12:06.595
0.4529830515384674,0.7266578674316406,0.493367075920105,1.840826153755188,0.5069930553436279,2.013066053390503,2024-06-17T22:12:06.615
0.39743852615356445,0.7598752379417419,0.42177683115005493,1.0792487859725952,1.3583269119262695,1.9075777530670166,2024-06-17T22:12:06.635
0.34977421164512634,0.7413718104362488,0.26665276288986206,-0.045180968940258026,3.2241477966308594,1.9035457372665405,2024-06-17T22:12:06.655
0.5038986802101135,0.6309596300125122,0.18395346403121948,-0.5758681297302246,3.5957534313201904,2.0253889560699463,2024-06-17T22:12:06.676
0.5987474918365479,0.5487200021743774,-0.00966346263885498,-0.478242427110672,2.7035374641418457,2.176041603088379,2024-06-17T22:12:06.695
0.6795963048934937,0.5668136477470398,-0.3144276738166809,-0.1898295283317566,1.9714782238006592,2.5400800704956055,2024-06-17T22:12:06.715
0.6076975464820862,0.5946328043937683,-0.7130823135375977,0.012474695220589638,2.4117677211761475,3.0577335357666016,2024-06-17T22:12:06.734
0.32276108860969543,0.5394014716148376,-1.1766819953918457,0.6177319288253784,2.9799516201019287,3.4223737716674805,2024-06-17T22:12:06.755
0.006113365292549133,0.41048097610473633,-1.1809210777282715,1.084018588066101,3.1953957080841064,3.543362855911255,2024-06-17T22:12:06.774
-0.28866273164749146,0.30667853355407715,-0.9591312408447266,1.244346261024475,3.2350072860717773,3.438030242919922,2024-06-17T22:12:06.794
-0.43338996171951294,0.31831419467926025,-0.9217953085899353,1.437212347984314,3.318326473236084,3.471346139907837,2024-06-17T22:12:06.814
-0.5930137634277344,0.3466903567314148,-0.91459059715271,1.7859909534454346,3.3091087341308594,3.6019322872161865,2024-06-17T22:12:06.834
-0.9510427117347717,0.2562134265899658,-0.8277589678764343,2.1406478881835938,3.3320887088775635,3.361497640609741,2024-06-17T22:12:06.854
-1.1991066932678223,0.24469614028930664,-0.5435341000556946,2.0435023307800293,3.589057445526123,2.8862390518188477,2024-06-17T22:12:06.874
-1.1805506944656372,0.2597534656524658,-0.20697537064552307,1.7075700759887695,3.6188652515411377,2.5643057823181152,2024-06-17T22:12:06.894
-1.1228991746902466,0.2953822612762451,-0.04896515607833862,1.6802678108215332,3.2005696296691895,2.408250093460083,2024-06-17T22:12:06.914
-1.1980743408203125,0.323611319065094,0.07960247993469238,1.745788812637329,2.6326181888580322,2.118866205215454,2024-06-17T22:12:06.934
-1.2010051012039185,0.3836525082588196,0.29591256380081177,1.5408885478973389,2.16277813911438,1.783042550086975,2024-06-17T22:12:06.954
-1.1165584325790405,0.4579995274543762,0.4790118932723999,1.2109018564224243,1.5479791164398193,1.735785722732544,2024-06-17T22:12:06.974
-1.340516448020935,0.4888632297515869,0.4224739074707031,1.1932512521743774,0.8593923449516296,1.4626379013061523,2024-06-17T22:12:06.994
-1.5286586284637451,0.48927104473114014,0.533789336681366,0.9442541599273682,0.2969738245010376,1.127411961555481,2024-06-17T22:12:07.014
-1.6642138957977295,0.5548862218856812,0.6331768035888672,0.5798797607421875,0.009812777861952782,0.7906167507171631,2024-06-17T22:12:07.034
-1.7939984798431396,0.5543688535690308,0.7528374195098877,0.11089029908180237,-0.36060672998428345,0.3452654778957367,2024-06-17T22:12:07.054
-1.8290824890136719,0.5679247379302979,0.9461255073547363,-0.6756078004837036,-0.8561908006668091,-0.20680083334445953,2024-06-17T22:12:07.074
-1.846124529838562,0.6174242496490479,1.1136764287948608,-1.7004833221435547,-1.446765422821045,-0.7596309185028076,2024-06-17T22:12:07.094
-1.914231300354004,0.7699713110923767,1.1963046789169312,-2.6123034954071045,-2.454380750656128,-1.279087781906128,2024-06-17T22:12:07.114
-2.1542346477508545,0.8882654309272766,1.0551398992538452,-2.782909870147705,-4.074131965637207,-1.5839557647705078,2024-06-17T22:12:07.134
-2.7329020500183105,0.8255665302276611,0.9444257616996765,-2.1307926177978516,-6.2872314453125,-1.796482801437378,2024-06-17T22:12:07.154
-3.793576717376709,0.6374621987342834,1.707542061805725,-2.0158259868621826,-9.925984382629395,-2.7130286693573,2024-06-17T22:12:07.174
-4.8692545890808105,1.0456231832504272,3.3060598373413086,-6.181232452392578,-12.288132667541504,-4.565359592437744,2024-06-17T22:12:07.194
-6.185219764709473,2.7642173767089844,3.7421486377716064,-14.162147521972656,-9.76774787902832,-7.5253214836120605,2024-06-17T22:12:07.214
-6.957675933837891,5.5946855545043945,-1.079918622970581,-16.74327850341797,-2.0174121856689453,-11.801024436950684,2024-06-17T22:12:07.234
-4.235594749450684,7.362609386444092,-7.13951301574707,-9.35604190826416,2.6420044898986816,-13.673752784729004,2024-06-17T22:12:07.254
1.0872430801391602,6.816261291503906,-6.763885974884033,-2.6374971866607666,0.21426557004451752,-10.358711242675781,2024-06-17T22:12:07.274
3.872243642807007,5.374032497406006,-5.065486907958984,0.5593948364257812,-0.41938653588294983,-5.796927452087402,2024-06-17T22:12:07.294
4.314600467681885,3.6129074096679688,-3.7725906372070312,2.3700201511383057,-0.26406925916671753,-2.2688660621643066,2024-06-17T22:12:07.314
3.6730334758758545,2.5386807918548584,-2.3483662605285645,3.306248426437378,-0.14698269963264465,0.04911164194345474,2024-06-17T22:12:07.334
2.8193907737731934,1.8959579467773438,-1.0400813817977905,3.2575786113739014,0.398153156042099,1.2958749532699585,2024-06-17T22:12:07.354
1.9802485704421997,1.296207308769226,-0.08060616254806519,2.661262273788452,0.6436020731925964,1.7656903266906738,2024-06-17T22:12:07.373
1.4235790967941284,0.9735770225524902,0.32565850019454956,1.7475768327713013,1.1099207401275635,1.9568896293640137,2024-06-17T22:12:07.393
0.981372594833374,0.8756522536277771,0.11476802825927734,1.406936526298523,1.6128928661346436,2.123751640319824,2024-06-17T22:12:07.413
0.6887660622596741,0.9381431937217712,0.08417624235153198,1.1546056270599365,1.7073824405670166,2.2839701175689697,2024-06-17T22:12:07.433
0.5296645760536194,1.0086700916290283,0.06843453645706177,0.912975549697876,1.534387469291687,2.471606731414795,2024-06-17T22:12:07.453
0.5132125616073608,1.029681921005249,-0.1998717188835144,1.0631288290023804,1.2609519958496094,2.815737009048462,2024-06-17T22:12:07.473
0.3876456320285797,0.9333627223968506,-0.3391515016555786,1.0903873443603516,1.4302576780319214,2.947965145111084,2024-06-17T22:12:07.493
0.22244155406951904,0.8810490369796753,-0.5294934511184692,1.019453763961792,2.1178736686706543,2.9618186950683594,2024-06-17T22:12:07.513
0.16220252215862274,0.892419695854187,-0.5022866725921631,0.7188324928283691,2.6540889739990234,3.0364701747894287,2024-06-17T22:12:07.533
0.07879265397787094,0.7881325483322144,-0.6000690460205078,0.6452047228813171,2.79752516746521,3.1207756996154785,2024-06-17T22:12:07.553
-0.012251026928424835,0.6666605472564697,-0.773777961730957,0.8644891977310181,2.962240219116211,3.3120288848876953,2024-06-17T22:12:07.573
-0.18000464141368866,0.563004195690155,-0.8251750469207764,0.9934101104736328,3.31070876121521,3.3923091888427734,2024-06-17T22:12:07.593
-0.3957328796386719,0.5014430284500122,-0.7697734832763672,0.8331896662712097,3.947661876678467,3.3587117195129395,2024-06-17T22:12:07.613
-0.5285162329673767,0.4812893867492676,-0.7224596738815308,0.7028271555900574,4.436750888824463,3.57245135307312,2024-06-17T22:12:07.633
-0.6473181843757629,0.4517396092414856,-0.7796100378036499,1.0561856031417847,4.287494659423828,3.8275442123413086,2024-06-17T22:12:07.653
-0.9053954482078552,0.38633692264556885,-0.6239941120147705,1.2406209707260132,3.9542911052703857,3.646505832672119,2024-06-17T22:12:07.673
-0.9695339798927307,0.38540565967559814,-0.3536195755004883,0.9716128706932068,3.736116647720337,3.7104625701904297,2024-06-17T22:12:07.693
-1.190119743347168,0.31513726711273193,-0.48863327503204346,1.317788004875183,3.534120559692383,3.6051316261291504,2024-06-17T22:12:07.712
-1.381978988647461,0.18791383504867554,-0.5376612544059753,2.0748612880706787,3.3369123935699463,3.075181245803833,2024-06-17T22:12:07.732
-1.3716073036193848,0.20208728313446045,-0.026069819927215576,1.9734867811203003,3.203742504119873,2.3589298725128174,2024-06-17T22:12:07.752
-0.9887596964836121,0.354805588722229,0.5308230519294739,1.0915987491607666,2.8662807941436768,2.3083534240722656,2024-06-17T22:12:07.772
-0.940662145614624,0.37033510208129883,0.45710521936416626,0.8054253458976746,2.18084716796875,2.360851526260376,2024-06-17T22:12:07.792
-1.2581992149353027,0.2638566493988037,0.2938023805618286,1.023153305053711,1.4401127099990845,1.8323637247085571,2024-06-17T22:12:07.813
-1.2176513671875,0.26161396503448486,0.47066181898117065,0.791461706161499,1.0257600545883179,1.367777705192566,2024-06-17T22:12:07.833
-1.09443998336792,0.3515138030052185,0.637077808380127,0.3626045286655426,0.6437287926673889,1.2275978326797485,2024-06-17T22:12:07.853
-1.2169849872589111,0.3965079188346863,0.5806722640991211,0.18141721189022064,0.22384043037891388,1.030094861984253,2024-06-17T22:12:07.872
-1.4647983312606812,0.39936554431915283,0.6815527677536011,-0.06403975188732147,-0.3471124768257141,0.6013561487197876,2024-06-17T22:12:07.892
-1.6264913082122803,0.3641205430030823,0.7862570285797119,-0.5658882260322571,-0.8155583739280701,0.03551167622208595,2024-06-17T22:12:07.913
-1.670114278793335,0.3624594807624817,0.846626341342926,-1.18565034866333,-1.2570430040359497,-0.5047009587287903,2024-06-17T22:12:07.933
-1.619631290435791,0.48457443714141846,0.7597330808639526,-1.7518208026885986,-1.3985893726348877,-0.864734411239624,2024-06-17T22:12:07.953
-1.6472077369689941,0.5762822031974792,0.7087451219558716,-2.102511167526245,-1.9585976600646973,-1.1677443981170654,2024-06-17T22:12:07.972
-1.829246997833252,0.5753806233406067,0.7325136661529541,-2.245443105697632,-3.3633344173431396,-1.4677621126174927,2024-06-17T22:12:07.993
-2.310482978820801,0.43018800020217896,0.6374499201774597,-1.8743484020233154,-5.284931182861328,-1.7275824546813965,2024-06-17T22:12:08.013
-3.4407224655151367,-0.0017051100730895996,0.6075129508972168,-0.9609900712966919,-7.796871662139893,-2.9522769451141357,2024-06-17T22:12:08.032
-4.342499256134033,0.041280925273895264,1.5429551601409912,-2.0864343643188477,-9.51134967803955,-4.598268032073975,2024-06-17T22:12:08.052
-4.999144077301025,0.8881052136421204,3.1857798099517822,-7.2141594886779785,-9.59128189086914,-6.91469144821167,2024-06-17T22:12:08.072
-5.913991451263428,2.7911770343780518,2.960259437561035,-13.221549987792969,-7.6099653244018555,-10.395657539367676,2024-06-17T22:12:08.092
-6.279171466827393,6.063521385192871,-0.49516940116882324,-15.242785453796387,-2.118809461593628,-13.533761978149414,2024-06-17T22:12:08.112
-3.856397867202759,8.118546485900879,-5.694033145904541,-9.841381072998047,2.9824013710021973,-14.635702133178711,2024-06-17T22:12:08.132
0.9474653601646423,8.309442520141602,-7.069364547729492,-2.2097957134246826,2.363083839416504,-11.079411506652832,2024-06-17T22:12:08.152
6.495572090148926,7.1507086753845215,-5.322586536407471,1.9293028116226196,1.4450057744979858,-2.9107182025909424,2024-06-17T22:12:08.172
6.1597161293029785,4.975635051727295,-3.0201828479766846,5.17791223526001,-1.9520331621170044,2.600149631500244,2024-06-17T22:12:08.192
3.5356481075286865,3.3547585010528564,-1.9551934003829956,6.887729167938232,-2.400022506713867,4.4564595222473145,2024-06-17T22:12:08.212
1.4056673049926758,1.9622340202331543,-0.01847308874130249,4.980476379394531,-0.10513485223054886,4.15107536315918,2024-06-17T22:12:08.232
0.2653750777244568,0.912204384803772,0.6113268733024597,3.0671088695526123,1.1609718799591064,3.01621413230896,2024-06-17T22:12:08.252
0.07791732251644135,0.6437172889709473,0.28994524478912354,2.1526670455932617,2.124204158782959,2.3445470333099365,2024-06-17T22:12:08.272
0.3190515637397766,0.6879680156707764,0.31017911434173584,1.931862235069275,1.8149914741516113,2.2729904651641846,2024-06-17T22:12:08.292
0.3188022971153259,0.6962558031082153,0.3497673273086548,2.0726046562194824,0.7437813878059387,2.2881832122802734,2024-06-17T22:12:08.312
0.27252358198165894,0.729267954826355,0.2976412773132324,1.6475374698638916,0.7833433151245117,2.304831027984619,2024-06-17T22:12:08.332
0.02603936940431595,0.6785742044448853,0.031529366970062256,1.1802854537963867,1.692604660987854,2.0188887119293213,2024-06-17T22:12:08.352
0.05401453375816345,0.636495053768158,-0.1476934552192688,0.8378521800041199,2.540040969848633,2.039402484893799,2024-06-17T22:12:08.371
0.19409827888011932,0.5963082313537598,-0.21403801441192627,0.7486274242401123,2.575032949447632,2.2938075065612793,2024-06-17T22:12:08.392
0.06663067638874054,0.5210317373275757,-0.4176071882247925,0.8239462971687317,2.727309226989746,2.427764892578125,2024-06-17T22:12:08.412
-0.09995980560779572,0.43586087226867676,-0.4724385142326355,0.6545944809913635,3.4174435138702393,2.407250165939331,2024-06-17T22:12:08.432
-0.07079513370990753,0.39283305406570435,-0.5159352421760559,0.5529387593269348,3.7632052898406982,2.511265993118286,2024-06-17T22:12:08.451
0.009734079241752625,0.38563108444213867,-0.7043383121490479,1.0528866052627563,3.4372811317443848,2.9000251293182373,2024-06-17T22:12:08.471
-0.17791542410850525,0.3094213008880615,-0.6724581718444824,1.6181340217590332,2.8859026432037354,3.1379566192626953,2024-06-17T22:12:08.491
-0.568205714225769,0.18330878019332886,-0.5788426995277405,1.8780512809753418,2.7789647579193115,2.864013671875,2024-06-17T22:12:08.511
-0.7496656775474548,0.12264078855514526,-0.3819566071033478,1.5079879760742188,3.3608815670013428,2.4708595275878906,2024-06-17T22:12:08.531
-0.7131328582763672,0.11343353986740112,-0.2093581259250641,0.8598331809043884,4.028975486755371,2.3000659942626953,2024-06-17T22:12:08.551
-0.735196590423584,0.09689664840698242,-0.18523061275482178,0.7859809398651123,3.745800733566284,2.1873819828033447,2024-06-17T22:12:08.571
-0.7880638837814331,0.12508422136306763,-0.18426081538200378,1.0531913042068481,3.125441312789917,1.9915813207626343,2024-06-17T22:12:08.591
-0.7689308524131775,0.1882086992263794,0.04922986030578613,1.0742418766021729,2.5475330352783203,1.9672033786773682,2024-06-17T22:12:08.611
-0.9209853410720825,0.1757623553276062,0.12778273224830627,1.1298002004623413,2.090221881866455,1.8793139457702637,2024-06-17T22:12:08.631
-1.1706502437591553,0.1198127269744873,0.14234143495559692,1.2387813329696655,1.8764123916625977,1.561217188835144,2024-06-17T22:12:08.651
-1.3283687829971313,0.035938560962677,0.3215312361717224,1.172732949256897,1.6096763610839844,1.066831111907959,2024-06-17T22:12:08.671
-1.337812066078186,0.04373842477798462,0.5160000324249268,0.912445068359375,1.2385658025741577,0.6419122815132141,2024-06-17T22:12:08.691
-1.3803776502609253,0.11035686731338501,0.6365164518356323,0.7232662439346313,0.5135605335235596,0.38178569078445435,2024-06-17T22:12:08.711
-1.4227476119995117,0.1549140214920044,0.6436911225318909,0.6030674576759338,-0.36512473225593567,0.13261008262634277,2024-06-17T22:12:08.731
-1.6501554250717163,0.14874887466430664,0.5755735635757446,0.3233907222747803,-0.6032664179801941,-0.3217603266239166,2024-06-17T22:12:08.751
-1.6105775833129883,0.20846956968307495,0.6606024503707886,-0.39393311738967896,-0.4070466458797455,-0.5985307693481445,2024-06-17T22:12:08.771
-1.5282673835754395,0.22405534982681274,0.6266465187072754,-0.8355157971382141,-0.6749317646026611,-0.7689622044563293,2024-06-17T22:12:08.791
-1.4278842210769653,0.280150830745697,0.45653247833251953,-0.6976739168167114,-1.792115330696106,-0.8844581842422485,2024-06-17T22:12:08.811
-1.4082865715026855,0.23976927995681763,0.34880444407463074,-0.5249306559562683,-2.9982824325561523,-1.0547395944595337,2024-06-17T22:12:08.831
-1.4280282258987427,0.21547740697860718,0.37277036905288696,-0.5801586508750916,-3.7674379348754883,-1.2444815635681152,2024-06-17T22:12:08.851
-1.5962224006652832,0.13782882690429688,0.31100237369537354,-0.43503066897392273,-4.582084655761719,-1.43410062789917,2024-06-17T22:12:08.871
-1.928327202796936,-0.029657185077667236,0.4735028147697449,-0.19865800440311432,-5.917268753051758,-1.9737602472305298,2024-06-17T22:12:08.891
-2.2785704135894775,-0.04941403865814209,1.0687766075134277,-0.6561810374259949,-7.52374267578125,-2.6431031227111816,2024-06-17T22:12:08.911
-2.724642753601074,0.20303237438201904,1.8005642890930176,-2.297058343887329,-8.806648254394531,-3.6776535511016846,2024-06-17T22:12:08.931
-3.1067326068878174,0.8874908685684204,2.2430930137634277,-5.009652614593506,-8.919529914855957,-5.087346076965332,2024-06-17T22:12:08.951
-3.3073999881744385,1.9854003190994263,2.2359232902526855,-8.611310005187988,-8.984651565551758,-6.7047529220581055,2024-06-17T22:12:08.970
-3.275470495223999,3.8524553775787354,-0.4747719168663025,-9.986828804016113,-6.193618297576904,-7.901209354400635,2024-06-17T22:12:08.991
-1.6296451091766357,4.721508026123047,-4.153883934020996,-8.340072631835938,-3.413156747817993,-7.3827900886535645,2024-06-17T22:12:09.011
0.5037580132484436,4.663980960845947,-6.585566997528076,-4.1235575675964355,-1.888792872428894,-5.284421443939209,2024-06-17T22:12:09.030
2.7767090797424316,3.5504605770111084,-6.73943567276001,-0.18096749484539032,-0.3689129650592804,-1.860306978225708,2024-06-17T22:12:09.051
3.193511486053467,2.478027105331421,-5.148368835449219,2.8340275287628174,0.07509413361549377,1.0019171237945557,2024-06-17T22:12:09.071
2.4889612197875977,1.8975675106048584,-3.399146556854248,4.777143478393555,0.11767171323299408,2.5139496326446533,2024-06-17T22:12:09.091
1.6218434572219849,1.5245699882507324,-1.276911735534668,4.246240615844727,0.9853668808937073,2.909639835357666,2024-06-17T22:12:09.110
0.8824084401130676,1.0723497867584229,-0.17426824569702148,2.8480875492095947,1.8079403638839722,2.635061264038086,2024-06-17T22:12:09.130
0.5377185344696045,0.9277615547180176,-0.18711936473846436,2.3104965686798096,2.149493455886841,2.463805913925171,2024-06-17T22:12:09.150
0.32554715871810913,0.8862299919128418,-0.2222902774810791,2.2887816429138184,2.337709903717041,2.3757262229919434,2024-06-17T22:12:09.170
0.1261632889509201,0.8340930938720703,0.06818875670433044,1.8066047430038452,2.5371575355529785,2.1699092388153076,2024-06-17T22:12:09.190
0.010262683033943176,0.7295216917991638,0.2401427924633026,0.9879711270332336,2.8027687072753906,1.9483788013458252,2024-06-17T22:12:09.210
0.04783537983894348,0.7005537748336792,-0.06704214215278625,0.6968373656272888,3.1636974811553955,1.9834985733032227,2024-06-17T22:12:09.230
0.14911113679409027,0.6686225533485413,-0.23143836855888367,0.5459794998168945,3.421684741973877,2.324889659881592,2024-06-17T22:12:09.250
0.07647641003131866,0.5813170075416565,-0.2785733938217163,0.4692447781562805,3.2861545085906982,2.6363096237182617,2024-06-17T22:12:09.270
-0.11133477091789246,0.47498226165771484,-0.5833432674407959,0.8046210408210754,3.3298676013946533,2.815692901611328,2024-06-17T22:12:09.290
-0.19688096642494202,0.4177880883216858,-0.6454561948776245,0.8736693263053894,3.6620216369628906,3.025801420211792,2024-06-17T22:12:09.310
-0.39948558807373047,0.29351121187210083,-0.5721128582954407,0.94571852684021,3.3915348052978516,3.0350699424743652,2024-06-17T22:12:09.330
-0.5416722893714905,0.24769335985183716,-0.6504819989204407,1.263497233390808,3.028879165649414,3.0911734104156494,2024-06-17T22:12:09.350
-0.9717210531234741,0.15835469961166382,-0.8132218718528748,1.7305593490600586,3.2929739952087402,2.619328260421753,2024-06-17T22:12:09.370
-1.0632317066192627,0.061082541942596436,-0.5354557633399963,1.4996713399887085,3.837989330291748,2.12562894821167,2024-06-17T22:12:09.390
-0.8271621465682983,0.08613049983978271,-0.19717809557914734,0.7759566903114319,4.22206449508667,2.0087480545043945,2024-06-17T22:12:09.410
-0.6356432437896729,0.14070892333984375,-0.24378985166549683,0.6797013282775879,3.8826160430908203,2.2749853134155273,2024-06-17T22:12:09.430
-0.7354477643966675,0.0751541256904602,-0.4554843306541443,1.4073623418807983,3.0759873390197754,2.338904619216919,2024-06-17T22:12:09.450
-0.9693716764450073,-0.06662863492965698,-0.3571663498878479,1.9654715061187744,2.7781147956848145,1.9446020126342773,2024-06-17T22:12:09.470
-0.9158642292022705,-0.1378415822982788,0.11585733294487,1.6290009021759033,2.6261649131774902,1.4616056680679321,2024-06-17T22:12:09.490
-0.6735579371452332,0.06945979595184326,0.43242785334587097,0.8226099014282227,2.4880781173706055,1.4495837688446045,2024-06-17T22:12:09.510
-0.5686863660812378,0.16061782836914062,0.14816761016845703,0.7013368606567383,2.329862594604492,1.6613184213638306,2024-06-17T22:12:09.530
-0.7737597227096558,0.1543341875076294,-0.11568757891654968,1.226288914680481,1.848584532737732,1.5815613269805908,2024-06-17T22:12:09.550
-1.0115571022033691,0.16657447814941406,-0.013913065195083618,1.793893575668335,1.10566246509552,1.247597575187683,2024-06-17T22:12:09.569
-1.1729779243469238,0.18996769189834595,0.27481842041015625,1.8958930969238281,0.6188451051712036,0.8027106523513794,2024-06-17T22:12:09.589
-1.262069582939148,0.24107009172439575,0.5482560992240906,1.4764600992202759,0.6609587669372559,0.4269935190677643,2024-06-17T22:12:09.609
-1.3486758470535278,0.36557310819625854,0.7722247838973999,0.7669381499290466,0.9008248448371887,0.13747790455818176,2024-06-17T22:12:09.629
-1.4770256280899048,0.4474233388900757,0.9037898182868958,0.21599368751049042,0.49983084201812744,-0.22030922770500183,2024-06-17T22:12:09.649
-1.545399785041809,0.4886983633041382,0.934299647808075,-0.15477630496025085,-0.23326101899147034,-0.5642013549804688,2024-06-17T22:12:09.669
-1.6279089450836182,0.5174279808998108,0.8605716824531555,-0.36341553926467896,-0.9345347881317139,-0.8674862384796143,2024-06-17T22:12:09.690
-1.6752339601516724,0.5664626359939575,0.8851228952407837,-0.7952082753181458,-1.3415323495864868,-1.040879726409912,2024-06-17T22:12:09.709
-1.9046140909194946,0.5554676055908203,0.8657830953598022,-1.182478427886963,-1.8600112199783325,-1.3698785305023193,2024-06-17T22:12:09.729
-2.0870704650878906,0.5355740189552307,0.8233503103256226,-1.3652516603469849,-2.9306764602661133,-1.746700406074524,2024-06-17T22:12:09.749
-2.241103172302246,0.48511970043182373,0.8136328458786011,-1.27799391746521,-4.716702461242676,-2.0196380615234375,2024-06-17T22:12:09.769
-2.6859216690063477,0.3614211082458496,0.8430567383766174,-1.0933769941329956,-6.632185935974121,-2.4573800563812256,2024-06-17T22:12:09.789
-3.53452730178833,0.39283424615859985,1.0834527015686035,-1.1067581176757812,-8.3485107421875,-3.7086033821105957,2024-06-17T22:12:09.809
-3.882326602935791,0.8320813775062561,2.457747220993042,-3.6617329120635986,-11.206204414367676,-4.971930027008057,2024-06-17T22:12:09.829
-4.4550676345825195,2.030533790588379,3.0216798782348633,-8.45797061920166,-12.52660083770752,-6.513500690460205,2024-06-17T22:12:09.849
-5.345660209655762,3.8790433406829834,0.7494450807571411,-12.80542278289795,-9.280739784240723,-8.525400161743164,2024-06-17T22:12:09.869
-4.925320625305176,6.131663799285889,-3.253288507461548,-14.617751121520996,-0.4337485134601593,-10.7278470993042,2024-06-17T22:12:09.889
-1.5693265199661255,7.157431602478027,-7.396754741668701,-9.135151863098145,4.484738826751709,-11.005680084228516,2024-06-17T22:12:09.909
4.27935266494751,7.155753135681152,-7.309266090393066,-1.9802348613739014,3.391968250274658,-5.272902965545654,2024-06-17T22:12:09.929
6.9872002601623535,5.358005523681641,-5.227541923522949,3.666754722595215,-0.8172087669372559,1.425024390220642,2024-06-17T22:12:09.949
5.063318729400635,4.257081985473633,-3.1823201179504395,6.599106788635254,-2.3281824588775635,5.252227306365967,2024-06-17T22:12:09.969
2.371408700942993,3.0430657863616943,-1.2683930397033691,6.375072002410889,-0.8710708022117615,5.9799299240112305,2024-06-17T22:12:09.989
0.5436526536941528,1.7435064315795898,0.01680213212966919,4.784271717071533,0.7678254842758179,5.094339847564697,2024-06-17T22:12:10.009
-0.1972159892320633,1.2131849527359009,0.18801617622375488,3.4191770553588867,2.026825189590454,4.171345233917236,2024-06-17T22:12:10.029
-0.2193799912929535,1.0407650470733643,0.2789342999458313,2.6014902591705322,2.3432376384735107,3.794088363647461,2024-06-17T22:12:10.049
-0.04166978597640991,0.8569939136505127,0.3617192506790161,2.389294147491455,1.5289027690887451,3.7529139518737793,2024-06-17T22:12:10.069
-0.3061164319515228,0.6655874252319336,0.15139156579971313,2.275259017944336,1.5861406326293945,3.341654062271118,2024-06-17T22:12:10.088
-0.5459811687469482,0.46630358695983887,0.24577507376670837,1.0673232078552246,3.139871120452881,2.718763828277588,2024-06-17T22:12:10.109
-0.3758624792098999,0.41551411151885986,0.21019083261489868,0.25351887941360474,3.772254228591919,2.560662269592285,2024-06-17T22:12:10.128
-0.18776899576187134,0.35239046812057495,-0.2647528648376465,0.9207192659378052,2.906845808029175,2.7686800956726074,2024-06-17T22:12:10.148
-0.26927638053894043,0.2209368348121643,-0.3762219548225403,1.621344804763794,2.0961368083953857,2.850179672241211,2024-06-17T22:12:10.168
-0.5600066184997559,0.06875568628311157,-0.17450937628746033,1.3400940895080566,2.231044054031372,2.4423341751098633,2024-06-17T22:12:10.188
-0.6679681539535522,0.04754382371902466,-0.21771901845932007,0.7664695978164673,2.8558144569396973,2.0007975101470947,2024-06-17T22:12:10.208
-0.4333586096763611,0.19676434993743896,-0.5336561799049377,1.0578863620758057,3.2067348957061768,2.410051107406616,2024-06-17T22:12:10.228
-0.7098657488822937,0.08379197120666504,-0.6838217973709106,2.0894126892089844,2.8828446865081787,2.4329311847686768,2024-06-17T22:12:10.248
-0.973616898059845,0.049621522426605225,-0.3063337802886963,2.481332778930664,2.493070125579834,1.8522111177444458,2024-06-17T22:12:10.268
-0.8575572967529297,0.1058310866355896,0.24043983221054077,1.8330066204071045,2.3792500495910645,1.4805067777633667,2024-06-17T22:12:10.288
-0.6697760820388794,0.2182713747024536,0.2721160352230072,1.3781800270080566,2.4419543743133545,1.558812141418457,2024-06-17T22:12:10.308
-0.7930282950401306,0.2080090045928955,0.14692342281341553,1.5144237279891968,2.1702427864074707,1.435083270072937,2024-06-17T22:12:10.328
-0.8922148942947388,0.21838700771331787,0.3306679129600525,1.4434444904327393,1.7661651372909546,1.1131988763809204,2024-06-17T22:12:10.348
-0.8252270221710205,0.27622222900390625,0.5559015274047852,1.0380563735961914,1.4220786094665527,0.9330207109451294,2024-06-17T22:12:10.368
-0.7173203229904175,0.33055275678634644,0.5631645917892456,0.7976930737495422,1.0662879943847656,0.9750577211380005,2024-06-17T22:12:10.388
-0.750838577747345,0.32944732904434204,0.5171816349029541,0.747260332107544,0.7744460701942444,0.9602203369140625,2024-06-17T22:12:10.408
-0.8596625328063965,0.29463642835617065,0.566340446472168,0.7171357870101929,0.3677733242511749,0.7609137296676636,2024-06-17T22:12:10.428
-0.9038586616516113,0.3228716254234314,0.6192212104797363,0.5792068839073181,0.031931329518556595,0.5576320886611938,2024-06-17T22:12:10.448
-0.9387915730476379,0.3105923533439636,0.7955448627471924,0.052392639219760895,-0.16770701110363007,0.3587128221988678,2024-06-17T22:12:10.468
-0.96851646900177,0.35374122858047485,0.8491307497024536,-0.5608228445053101,-0.295890748500824,0.22487038373947144,2024-06-17T22:12:10.488
-1.0131754875183105,0.38016611337661743,0.750006914138794,-0.9618962407112122,-0.3731634318828583,0.11982011795043945,2024-06-17T22:12:10.508
-1.105506420135498,0.3899245262145996,0.6460895538330078,-1.1682164669036865,-0.7192837595939636,0.0051426817663013935,2024-06-17T22:12:10.528
-1.2285380363464355,0.33788055181503296,0.7230313420295715,-1.8481121063232422,-1.003929615020752,-0.19358773529529572,2024-06-17T22:12:10.548
-1.375051498413086,0.24879705905914307,0.731258749961853,-2.670267343521118,-1.0774391889572144,-0.4927346408367157,2024-06-17T22:12:10.568
-1.4840319156646729,0.2295384407043457,0.15809530019760132,-2.0765345096588135,-1.5832616090774536,-0.5689142942428589,2024-06-17T22:12:10.588
-1.9624683856964111,0.0934942364692688,-0.13265705108642578,-0.43934834003448486,-3.073763608932495,-0.9923180341720581,2024-06-17T22:12:10.608
-2.5202817916870117,-0.18777155876159668,0.18064427375793457,1.0738093852996826,-5.1660590171813965,-1.9570331573486328,2024-06-17T22:12:10.628
-2.95755934715271,-0.2340914011001587,1.6431936025619507,-0.1384623646736145,-7.466307163238525,-3.5067286491394043,2024-06-17T22:12:10.648
-3.093890905380249,0.3246235251426697,3.2324633598327637,-4.938475608825684,-8.303317070007324,-5.014606475830078,2024-06-17T22:12:10.668
-3.543637752532959,1.638608455657959,2.5536601543426514,-8.909579277038574,-6.864684104919434,-7.054927349090576,2024-06-17T22:12:10.688
-3.576294422149658,3.0461816787719727,0.6829801797866821,-10.282401084899902,-5.985086917877197,-9.236100196838379,2024-06-17T22:12:10.708
-2.303417682647705,4.669609069824219,-2.110429286956787,-9.279786109924316,-4.77049446105957,-9.53695011138916,2024-06-17T22:12:10.727
0.0834168791770935,5.280265808105469,-4.986985683441162,-6.614858150482178,-2.5763986110687256,-7.577239990234375,2024-06-17T22:12:10.747
2.297403335571289,4.8405303955078125,-6.926699638366699,-2.0219566822052,-0.23122933506965637,-4.146238803863525,2024-06-17T22:12:10.767
4.257518291473389,3.5275187492370605,-6.943116664886475,3.2012135982513428,0.09916600584983826,0.05774593725800514,2024-06-17T22:12:10.787
3.7366366386413574,2.7227773666381836,-3.663275957107544,5.417540073394775,-0.8093553781509399,3.02468204498291,2024-06-17T22:12:10.807
2.139989137649536,1.9573875665664673,-1.9044891595840454,6.0708394050598145,-0.3326219320297241,3.9309420585632324,2024-06-17T22:12:10.827
0.8457647562026978,1.1031644344329834,0.08165132999420166,4.736927509307861,0.2523060739040375,3.3608531951904297,2024-06-17T22:12:10.847
0.01964104175567627,0.5125529766082764,0.5947692394256592,3.1066505908966064,1.0705679655075073,2.2213852405548096,2024-06-17T22:12:10.867
-0.04820352792739868,0.3247278928756714,0.6492267847061157,1.8037949800491333,1.7754977941513062,1.518481731414795,2024-06-17T22:12:10.887
0.0884084701538086,0.28245365619659424,0.5727934837341309,1.1721076965332031,1.5965619087219238,1.21560537815094,2024-06-17T22:12:10.907
0.1296062469482422,0.270979642868042,0.48351794481277466,0.7107688784599304,1.2614381313323975,1.0415297746658325,2024-06-17T22:12:10.927
-0.035079628229141235,0.20305705070495605,0.17648088932037354,0.2894122004508972,1.5592643022537231,0.7789465188980103,2024-06-17T22:12:10.947
-0.06415438652038574,0.18060177564620972,-0.14172998070716858,-0.3129175007343292,2.7076661586761475,0.6419405341148376,2024-06-17T22:12:10.967
0.04804334044456482,0.12185686826705933,-0.4821561574935913,-0.19184231758117676,2.954610824584961,0.7344424724578857,2024-06-17T22:12:10.987
0.1522550731897354,0.13954287767410278,-0.7710199952125549,0.5217588543891907,2.634007215499878,1.0734977722167969,2024-06-17T22:12:11.007
0.08736704289913177,0.17155039310455322,-0.7395248413085938,0.9497372508049011,2.5061511993408203,1.3614143133163452,2024-06-17T22:12:11.027
-0.03639616072177887,0.16859060525894165,-0.6750573515892029,1.2615350484848022,2.582632541656494,1.6147459745407104,2024-06-17T22:12:11.047
-0.20075111091136932,0.14426738023757935,-0.6127161979675293,1.514929175376892,2.672121286392212,1.750301480293274,2024-06-17T22:12:11.067
-0.4172009229660034,0.1295650601387024,-0.4881884455680847,1.5071347951889038,2.7963085174560547,1.640159010887146,2024-06-17T22:12:11.087
-0.472940593957901,0.18351197242736816,-0.3186298608779907,1.2349847555160522,2.9812960624694824,1.5896533727645874,2024-06-17T22:12:11.107
-0.4496311545372009,0.24206870794296265,-0.36937451362609863,1.1611292362213135,3.172244071960449,1.6362926959991455,2024-06-17T22:12:11.127
-0.46384143829345703,0.27377110719680786,-0.45283833146095276,1.5099732875823975,3.1115376949310303,1.7440545558929443,2024-06-17T22:12:11.147
-0.4704161286354065,0.29536324739456177,-0.2469382882118225,1.7262892723083496,2.7668819427490234,1.8156818151474,2024-06-17T22:12:11.167
-0.5229750275611877,0.293962299823761,0.022100597620010376,1.67685866355896,2.427443504333496,1.8954495191574097,2024-06-17T22:12:11.187
-0.646611213684082,0.3060619831085205,0.13698628544807434,1.5525935888290405,2.352080821990967,1.8953888416290283,2024-06-17T22:12:11.207
-0.7897992134094238,0.29115718603134155,0.23691508173942566,1.3925107717514038,2.407541513442993,1.7593514919281006,2024-06-17T22:12:11.226
-0.8356702923774719,0.29650914669036865,0.3813735544681549,1.2404505014419556,2.317230224609375,1.60628080368042,2024-06-17T22:12:11.246
-0.8575275540351868,0.29854732751846313,0.47694647312164307,1.2748231887817383,1.8666081428527832,1.4403371810913086,2024-06-17T22:12:11.266
-0.9178047180175781,0.2855921983718872,0.598098635673523,1.3449804782867432,1.24199378490448,1.2733525037765503,2024-06-17T22:12:11.286
-1.023392677307129,0.2665812373161316,0.7962841987609863,1.0802316665649414,0.8148282766342163,1.0259791612625122,2024-06-17T22:12:11.306
-1.1110169887542725,0.3599662184715271,0.967467188835144,0.3270624279975891,0.9598469138145447,0.8979500532150269,2024-06-17T22:12:11.326
-1.1967236995697021,0.38981175422668457,0.9981247782707214,-0.4384298622608185,1.2379947900772095,0.8508439660072327,2024-06-17T22:12:11.346
-1.3953152894973755,0.37249088287353516,0.7962784767150879,-0.46334215998649597,0.6842644810676575,0.6675836443901062,2024-06-17T22:12:11.366
-1.5582928657531738,0.32400912046432495,0.7298904657363892,-0.18905572593212128,-0.3112841546535492,0.3690362274646759,2024-06-17T22:12:11.386
-1.6089173555374146,0.295365571975708,0.7990202307701111,-0.24010978639125824,-0.9269438982009888,0.15902096033096313,2024-06-17T22:12:11.406
-1.7606414556503296,0.30955106019973755,0.9608421921730042,-0.5073399543762207,-1.623774528503418,0.04822231084108353,2024-06-17T22:12:11.426
-2.1507070064544678,0.2463212013244629,1.0702277421951294,-0.6148402690887451,-3.0431530475616455,-0.3572053611278534,2024-06-17T22:12:11.446
-2.6265060901641846,0.015735208988189697,1.376480221748352,-0.9022129774093628,-5.147587776184082,-1.3562519550323486,2024-06-17T22:12:11.466
-2.9384913444519043,0.03737437725067139,1.8545198440551758,-1.7119265794754028,-6.663641929626465,-2.3866641521453857,2024-06-17T22:12:11.486
-3.2729153633117676,0.38894885778427124,2.7832655906677246,-3.9565446376800537,-8.833921432495117,-3.7411649227142334,2024-06-17T22:12:11.506
-3.852358102798462,1.2889480590820312,3.6291441917419434,-8.219477653503418,-10.938360214233398,-5.549842834472656,2024-06-17T22:12:11.526
-4.532354354858398,3.1789803504943848,1.9286640882492065,-12.422989845275879,-8.885588645935059,-7.2158942222595215,2024-06-17T22:12:11.546
-4.546755790710449,5.041706562042236,-2.5682129859924316,-12.705631256103516,-4.604203701019287,-9.704093933105469,2024-06-17T22:12:11.566
-1.4334657192230225,6.352346420288086,-7.052216529846191,-9.083806991577148,1.0853887796401978,-9.165884017944336,2024-06-17T22:12:11.586
3.764263153076172,5.997923851013184,-8.694732666015625,-1.6151741743087769,1.9962704181671143,-3.7727465629577637,2024-06-17T22:12:11.606
5.381502151489258,3.9302940368652344,-6.635270118713379,4.2409987449646,-0.5767380595207214,1.150578498840332,2024-06-17T22:12:11.626
3.8865034580230713,2.997941017150879,-3.4591100215911865,5.838994026184082,-0.34672778844833374,3.822978973388672,2024-06-17T22:12:11.646
1.966996669769287,2.1004321575164795,-1.576889157295227,5.326188564300537,1.0521304607391357,4.308773994445801,2024-06-17T22:12:11.666
0.8422715067863464,1.3480725288391113,-0.35859113931655884,3.781970977783203,2.3415772914886475,3.7689507007598877,2024-06-17T22:12:11.685
0.17935965955257416,0.8663421273231506,-0.11566057801246643,2.451249599456787,3.586153268814087,2.9735751152038574,2024-06-17T22:12:11.706
0.22177071869373322,0.7278074026107788,0.0570143461227417,1.735019564628601,3.9404826164245605,2.6837382316589355,2024-06-17T22:12:11.726
0.17003121972084045,0.7031629085540771,0.10536345839500427,1.4420973062515259,3.6889984607696533,2.6687114238739014,2024-06-17T22:12:11.746
0.04036043584346771,0.6424200534820557,0.10602462291717529,0.9786133766174316,3.642803907394409,2.704862117767334,2024-06-17T22:12:11.765
-0.26900869607925415,0.4879891276359558,-0.048242419958114624,0.4896574020385742,4.0490522384643555,2.5177786350250244,2024-06-17T22:12:11.785
-0.3561766743659973,0.38486552238464355,-0.3215729594230652,0.3320938050746918,4.492767810821533,2.449164628982544,2024-06-17T22:12:11.805
-0.35991501808166504,0.27716511487960815,-0.4739397168159485,0.35793495178222656,4.561201095581055,2.4518394470214844,2024-06-17T22:12:11.825
-0.25632983446121216,0.21015876531600952,-0.4600898027420044,0.31709522008895874,4.379293918609619,2.6064248085021973,2024-06-17T22:12:11.845
-0.29571956396102905,0.2133597731590271,-0.5995364189147949,0.5253435969352722,4.2050981521606445,2.9550633430480957,2024-06-17T22:12:11.865
-0.7125180959701538,0.12143266201019287,-0.8542752861976624,1.232700228691101,3.8877739906311035,2.89121413230896,2024-06-17T22:12:11.885
-0.9481821656227112,0.06809163093566895,-0.6741554737091064,1.6162176132202148,3.5447099208831787,2.518692970275879,2024-06-17T22:12:11.905
-0.9195200800895691,0.07007688283920288,-0.2906404137611389,1.31389582157135,3.403653383255005,2.2518115043640137,2024-06-17T22:12:11.925
-0.9865958094596863,0.08435946702957153,-0.2777253985404968,1.1020585298538208,3.3823323249816895,1.977368950843811,2024-06-17T22:12:11.945
-1.2778414487838745,0.017459332942962646,-0.3185670077800751,0.7450075149536133,4.174258708953857,1.4147604703903198,2024-06-17T22:12:11.965
-1.298405408859253,-0.02691739797592163,-0.1220741868019104,0.01588243618607521,5.306886672973633,0.8128497004508972,2024-06-17T22:12:11.985
-0.913714587688446,0.08503186702728271,0.04258263111114502,-0.2819153964519501,5.056699752807617,0.6942787766456604,2024-06-17T22:12:12.005
-0.6267052888870239,0.23030877113342285,0.03165626525878906,0.11968924850225449,3.503277063369751,1.0283594131469727,2024-06-17T22:12:12.025
-0.8233858346939087,0.25534772872924805,0.03905057907104492,0.365920752286911,2.5332188606262207,1.1643476486206055,2024-06-17T22:12:12.045
-1.2639186382293701,0.18457895517349243,0.07090246677398682,-0.0013459431938827038,3.126406192779541,0.866140604019165,2024-06-17T22:12:12.065
-1.5773528814315796,0.10179811716079712,0.20519131422042847,-0.8286194205284119,4.410700798034668,0.3642546236515045,2024-06-17T22:12:12.085
-1.479632019996643,0.18032598495483398,0.12675130367279053,-1.00221586227417,4.49685525894165,0.20797312259674072,2024-06-17T22:12:12.105
-1.4689017534255981,0.32542479038238525,-0.1398797631263733,-0.2642568349838257,3.087972402572632,0.031776007264852524,2024-06-17T22:12:12.125
-1.5519057512283325,0.33130985498428345,-0.4103848934173584,0.8449385762214661,1.1341702938079834,-0.21026015281677246,2024-06-17T22:12:12.145
-1.5870014429092407,0.27913492918014526,-0.3427731990814209,1.1765958070755005,0.07758209854364395,-0.618093729019165,2024-06-17T22:12:12.165
-1.5945948362350464,0.30420172214508057,-0.4503503441810608,1.0943102836608887,0.0533859059214592,-1.0845671892166138,2024-06-17T22:12:12.185
-1.4975239038467407,0.39339733123779297,-0.6313886642456055,1.3113794326782227,-0.24976734817028046,-1.3904991149902344,2024-06-17T22:12:12.204
-1.2632708549499512,0.4250994324684143,-0.7038646340370178,1.7814072370529175,-2.2127373218536377,-1.2399193048477173,2024-06-17T22:12:12.225
-1.2632018327713013,0.4224357604980469,-1.1238231658935547,3.1113646030426025,-5.189265251159668,-0.7422860264778137,2024-06-17T22:12:12.245
-1.4528640508651733,0.39066314697265625,-1.2861661911010742,3.894423484802246,-7.185311317443848,-0.5022826194763184,2024-06-17T22:12:12.264
-1.8578921556472778,0.16735553741455078,-1.090636968612671,3.4646763801574707,-7.656470775604248,-1.0342538356781006,2024-06-17T22:12:12.284
-1.8884629011154175,0.07153373956680298,-0.6477124691009521,2.0340018272399902,-7.521808624267578,-1.9559729099273682,2024-06-17T22:12:12.305
-1.904417634010315,-0.0387912392616272,-0.16879957914352417,0.4047205150127411,-8.425164222717285,-3.465991973876953,2024-06-17T22:12:12.324
-1.826102375984192,0.35378551483154297,0.33966824412345886,-1.5872766971588135,-9.070760726928711,-5.271345615386963,2024-06-17T22:12:12.345
-1.6947588920593262,1.218402624130249,-0.015907734632492065,-3.7874844074249268,-8.53608226776123,-7.902416229248047,2024-06-17T22:12:12.364
-1.0953083038330078,2.410064697265625,-1.968062400817871,-5.098405838012695,-2.674525499343872,-10.861503601074219,2024-06-17T22:12:12.384
1.9706923961639404,3.939211368560791,-3.5595602989196777,-3.284980535507202,1.8332785367965698,-10.847125053405762,2024-06-17T22:12:12.405
6.017397403717041,4.767157554626465,-3.4597232341766357,0.09969019889831543,1.4257404804229736,-5.638661861419678,2024-06-17T22:12:12.425
7.6977643966674805,4.0384345054626465,-2.0086829662323,2.3820221424102783,0.6392671465873718,1.2592178583145142,2024-06-17T22:12:12.445
5.903007507324219,2.7333145141601562,0.7608725428581238,1.5669833421707153,-0.7683579325675964,5.47108268737793,2024-06-17T22:12:12.464
3.3430709838867188,2.1248393058776855,1.027222752571106,0.7886109352111816,-0.9364979863166809,7.2186760902404785,2024-06-17T22:12:12.484
1.3646140098571777,1.5204792022705078,0.6486542820930481,0.5307844877243042,-0.6519982814788818,7.1246113777160645,2024-06-17T22:12:12.504
-0.012167006731033325,0.8435921669006348,0.23905140161514282,-0.07469113171100616,0.8582340478897095,5.6326446533203125,2024-06-17T22:12:12.524
-0.4600681960582733,0.6382952332496643,-0.4234554171562195,-0.5002842545509338,3.0896518230438232,4.14550256729126,2024-06-17T22:12:12.544
-0.29250892996788025,0.7286621332168579,-0.75875324010849,-0.2604369521141052,4.005077362060547,3.626142978668213,2024-06-17T22:12:12.564
-0.11884518712759018,0.66200852394104,-0.46310165524482727,0.06530950963497162,3.2802703380584717,3.556380271911621,2024-06-17T22:12:12.584
-0.23252727091312408,0.4442518949508667,-0.2173670530319214,-0.2507273256778717,3.129234790802002,3.2740018367767334,2024-06-17T22:12:12.604
-0.27344468235969543,0.31553030014038086,-0.24331706762313843,-0.8528008460998535,3.551055431365967,2.7634658813476562,2024-06-17T22:12:12.624
-0.14657574892044067,0.30992698669433594,-0.46149057149887085,-1.199171543121338,3.9458489418029785,2.4694108963012695,2024-06-17T22:12:12.644
0.04482607543468475,0.3484322428703308,-0.6549421548843384,-1.1417807340621948,3.722595453262329,2.64164400100708,2024-06-17T22:12:12.664
0.06328258663415909,0.3565223217010498,-0.8159493207931519,-0.5941738486289978,2.90556001663208,2.8955910205841064,2024-06-17T22:12:12.684
-0.11931969225406647,0.2799733877182007,-0.6727413535118103,-0.5464777946472168,2.788597345352173,2.7500696182250977,2024-06-17T22:12:12.704
-0.19106470048427582,0.2256479263305664,-0.5064514875411987,-0.84593266248703,2.819876194000244,2.553210496902466,2024-06-17T22:12:12.723
-0.1792898327112198,0.27005672454833984,-0.726005494594574,-0.48349103331565857,2.1489408016204834,2.752685070037842,2024-06-17T22:12:12.744
-0.5470081567764282,0.23438549041748047,-1.1891099214553833,0.5537810921669006,1.7246801853179932,2.6022841930389404,2024-06-17T22:12:12.764
-0.8785845637321472,0.18380463123321533,-1.107229471206665,0.8614598512649536,2.6843416690826416,2.0544660091400146,2024-06-17T22:12:12.784
-1.0212314128875732,0.02732563018798828,-0.565787136554718,0.48928624391555786,3.307800054550171,1.3386715650558472,2024-06-17T22:12:12.804
-0.8566155433654785,0.06121671199798584,-0.3658524751663208,0.43915092945098877,3.0270516872406006,1.0203616619110107,2024-06-17T22:12:12.823
-0.8555659055709839,0.12393969297409058,-0.44573134183883667,0.6822381019592285,2.7659127712249756,0.8370237946510315,2024-06-17T22:12:12.844
-0.9975618124008179,0.14025413990020752,-0.4159296751022339,0.6975563168525696,3.047482490539551,0.46426674723625183,2024-06-17T22:12:12.863
-1.0060737133026123,0.1985148787498474,-0.2875182032585144,0.4590221643447876,3.3838422298431396,0.17710936069488525,2024-06-17T22:12:12.883
-0.8220006227493286,0.3110191226005554,-0.10970056056976318,0.3135737180709839,2.9002630710601807,0.2867093086242676,2024-06-17T22:12:12.903
-0.7111462354660034,0.3941577672958374,-0.04850053787231445,0.4968072175979614,1.3173935413360596,0.6434882283210754,2024-06-17T22:12:12.923
-0.8191207051277161,0.4094962477684021,-0.11488884687423706,0.5966442227363586,0.163973867893219,0.8261401653289795,2024-06-17T22:12:12.943
-1.1098874807357788,0.3602796196937561,-0.22922885417938232,0.525415301322937,-0.03891134262084961,0.5824041962623596,2024-06-17T22:12:12.963
-1.279456377029419,0.3393455743789673,-0.32186222076416016,0.30423861742019653,0.04917948693037033,0.16438329219818115,2024-06-17T22:12:12.983
-1.3533743619918823,0.3086134195327759,-0.295068621635437,0.13987977802753448,-0.2694419324398041,-0.3138366639614105,2024-06-17T22:12:13.003
-1.3386560678482056,0.23368090391159058,-0.31281256675720215,0.027950644493103027,-0.7154228687286377,-0.8042025566101074,2024-06-17T22:12:13.023
-1.3781553506851196,0.23687154054641724,-0.4990440011024475,0.026160672307014465,-0.8333984613418579,-1.25813889503479,2024-06-17T22:12:13.043
-1.3743253946304321,0.2435588240623474,-0.5680887699127197,0.06063184142112732,-1.2164231538772583,-1.63807213306427,2024-06-17T22:12:13.063
-1.234131097793579,0.3362698554992676,-0.605497419834137,0.13909228146076202,-1.9774929285049438,-1.581192135810852,2024-06-17T22:12:13.083
-1.2137939929962158,0.3453931212425232,-0.9343823194503784,0.8474088907241821,-3.742432117462158,-1.2136982679367065,2024-06-17T22:12:13.103
-1.3433916568756104,0.12781202793121338,-1.0791195631027222,1.5678192377090454,-5.745304107666016,-0.6551706194877625,2024-06-17T22:12:13.123
-1.6662532091140747,-0.037450551986694336,-1.3043212890625,2.077190637588501,-6.954819202423096,-0.49473774433135986,2024-06-17T22:12:13.143
-1.967731237411499,-0.073574960231781,-1.2374669313430786,1.8000599145889282,-7.132335662841797,-1.1224899291992188,2024-06-17T22:12:13.163
-2.3339529037475586,-0.25910407304763794,-0.8131561279296875,0.5924037098884583,-7.14473819732666,-2.962294816970825,2024-06-17T22:12:13.183
-2.477815628051758,0.125074565410614,-0.4153960943222046,-0.7784339189529419,-7.205467700958252,-5.370578289031982,2024-06-17T22:12:13.203
-2.3871755599975586,0.8384412527084351,-0.3046344518661499,-2.3997738361358643,-6.5447001457214355,-8.347700119018555,2024-06-17T22:12:13.223
-1.7300231456756592,1.9287364482879639,-1.3803532123565674,-3.152771234512329,-3.452960729598999,-11.493345260620117,2024-06-17T22:12:13.243
0.755099892616272,3.6782116889953613,-3.34128475189209,-1.5770378112792969,2.388922691345215,-12.283599853515625,2024-06-17T22:12:13.263
5.076571941375732,5.2356977462768555,-3.2435736656188965,1.863733172416687,2.7950265407562256,-7.399419784545898,2024-06-17T22:12:13.283
7.508345127105713,4.175380229949951,-0.261203795671463,2.8640193939208984,-1.4791909456253052,-0.6400634050369263,2024-06-17T22:12:13.303
6.0423383712768555,2.7906994819641113,1.144103765487671,1.405373215675354,-1.1430373191833496,3.2174272537231445,2024-06-17T22:12:13.323
3.9337217807769775,2.026824951171875,1.1922035217285156,0.4873999357223511,-0.3053880035877228,4.952669143676758,2024-06-17T22:12:13.343
2.3300704956054688,1.7031948566436768,1.2121115922927856,-0.1271154135465622,0.1404171735048294,5.721437931060791,2024-06-17T22:12:13.362
0.893393874168396,1.122530460357666,0.9712114334106445,-0.5730050206184387,0.4244145452976227,5.120739459991455,2024-06-17T22:12:13.382
0.08076821267604828,0.7526428699493408,0.5477761030197144,-1.0592942237854004,1.3099735975265503,3.9295618534088135,2024-06-17T22:12:13.403
-0.18506091833114624,0.6772267818450928,-0.12591734528541565,-1.1560242176055908,2.6456215381622314,3.0111734867095947,2024-06-17T22:12:13.423
-0.15361745655536652,0.6640463471412659,-0.4440535604953766,-0.9919519424438477,3.55018949508667,2.5936641693115234,2024-06-17T22:12:13.443
-0.1719777137041092,0.5264051556587219,-0.41616618633270264,-0.7316136360168457,3.433499574661255,2.387223482131958,2024-06-17T22:12:13.462
-0.23130863904953003,0.23377132415771484,-0.0644303560256958,-1.0240927934646606,3.103924512863159,2.018510580062866,2024-06-17T22:12:13.482
-0.22436203062534332,0.056307315826416016,-0.013145506381988525,-1.4085924625396729,2.7599658966064453,1.6492544412612915,2024-06-17T22:12:13.502
-0.17141371965408325,0.01854950189590454,-0.2505556344985962,-1.6331791877746582,2.7292885780334473,1.360126256942749,2024-06-17T22:12:13.522
-0.08069323748350143,-0.0067882537841796875,-0.519925594329834,-1.5169742107391357,2.8497536182403564,1.189433217048645,2024-06-17T22:12:13.542
0.10648272931575775,0.022218167781829834,-0.6362477540969849,-1.3955931663513184,3.0348992347717285,1.2125056982040405,2024-06-17T22:12:13.562
0.26342546939849854,0.008514642715454102,-0.4797530770301819,-1.3035768270492554,2.541567325592041,1.3767443895339966,2024-06-17T22:12:13.582
0.3891668915748596,0.07375723123550415,-0.35124021768569946,-1.210968017578125,1.5241132974624634,1.8595763444900513,2024-06-17T22:12:13.602
0.06663486361503601,0.08257460594177246,-0.7905582785606384,-0.5774580836296082,1.1000869274139404,2.002305746078491,2024-06-17T22:12:13.622
-0.0943441167473793,0.08799183368682861,-0.8041264414787292,-0.4144580662250519,1.7447996139526367,1.9277844429016113,2024-06-17T22:12:13.642
-0.23917242884635925,0.057305991649627686,-0.6074746251106262,-0.6088773012161255,2.4014480113983154,1.6413214206695557,2024-06-17T22:12:13.662
-0.09521894156932831,0.15862202644348145,-0.3906556963920593,-0.6414697766304016,1.783355951309204,1.848623275756836,2024-06-17T22:12:13.682
-0.2418999820947647,0.20075923204421997,-0.6320258975028992,-0.022684743627905846,0.9240906834602356,1.9999380111694336,2024-06-17T22:12:13.702
-0.5298671126365662,0.1380709409713745,-0.637986421585083,0.15386512875556946,1.2359298467636108,1.7811752557754517,2024-06-17T22:12:13.722
-0.6251108050346375,0.12020295858383179,-0.3580058217048645,-0.27830833196640015,1.6990880966186523,1.5309746265411377,2024-06-17T22:12:13.742
-0.6149605512619019,0.1452021598815918,-0.30737370252609253,-0.2860400974750519,0.9598625898361206,1.486059308052063,2024-06-17T22:12:13.762
-0.7973345518112183,0.14589959383010864,-0.5003942847251892,0.1791660636663437,0.1312660276889801,1.433693289756775,2024-06-17T22:12:13.782
-0.9888023734092712,0.14104175567626953,-0.5011551976203918,0.3979903757572174,0.05593355372548103,1.2693160772323608,2024-06-17T22:12:13.802
-1.194918155670166,0.1375153660774231,-0.4417001008987427,0.6241648197174072,-0.06713825464248657,1.0147209167480469,2024-06-17T22:12:13.822
-1.314630150794983,0.20375734567642212,-0.4082488417625427,0.7982944250106812,-0.4211077392101288,0.7693623900413513,2024-06-17T22:12:13.842
-1.5172650814056396,0.21198713779449463,-0.24539715051651,0.758084774017334,-0.9792236685752869,0.3288262188434601,2024-06-17T22:12:13.862
-1.6612482070922852,0.2654292583465576,-0.2474096119403839,0.5923531651496887,-1.1638349294662476,-0.2101708948612213,2024-06-17T22:12:13.882
-1.7748957872390747,0.31647181510925293,-0.38736146688461304,0.4382655918598175,-0.938081681728363,-0.745783805847168,2024-06-17T22:12:13.902
-1.6960862874984741,0.3672980070114136,-0.29334956407546997,0.2832811772823334,-1.407407522201538,-1.1266463994979858,2024-06-17T22:12:13.922
-1.632371425628662,0.41086941957473755,-0.23276841640472412,0.24155719578266144,-2.8960728645324707,-1.2620344161987305,2024-06-17T22:12:13.942
-1.7420061826705933,0.5152382850646973,-0.4470774531364441,0.6331549882888794,-4.758867263793945,-0.9919610619544983,2024-06-17T22:12:13.961
-2.2722935676574707,0.39374130964279175,-0.8537222743034363,1.4235482215881348,-6.5100812911987305,-0.9297941327095032,2024-06-17T22:12:13.982
-2.917084217071533,0.24346846342086792,-0.8497640490531921,1.8503029346466064,-8.036216735839844,-1.3746254444122314,2024-06-17T22:12:14.002
-3.535043716430664,0.3358566164970398,-0.30140334367752075,0.7345659136772156,-7.770132064819336,-2.6902785301208496,2024-06-17T22:12:14.022
-3.885590076446533,0.7077592015266418,0.9524110555648804,-2.3984670639038086,-8.158661842346191,-4.988417625427246,2024-06-17T22:12:14.042
-3.6530163288116455,1.5610278844833374,1.2685105800628662,-6.2539286613464355,-9.232608795166016,-7.951442718505859,2024-06-17T22:12:14.062
-2.801156759262085,3.0008931159973145,-1.4174489974975586,-7.614256381988525,-7.963817119598389,-10.976152420043945,2024-06-17T22:12:14.082
0.18843583762645721,4.78974723815918,-5.425943374633789,-5.714035511016846,-1.4001964330673218,-11.180242538452148,2024-06-17T22:12:14.101
4.701921463012695,5.452071189880371,-7.162928104400635,-0.967220664024353,3.850956916809082,-7.621059417724609,2024-06-17T22:12:14.122
7.067600727081299,4.3919243812561035,-4.1547675132751465,2.2327651977539062,4.366024494171143,-2.22359037399292,2024-06-17T22:12:14.142
6.803396224975586,2.9627628326416016,-0.3476727604866028,2.4643821716308594,1.9381719827651978,2.4514448642730713,2024-06-17T22:12:14.161
4.895740509033203,2.542804479598999,0.9253043532371521,1.9538980722427368,0.9745010733604431,5.671943187713623,2024-06-17T22:12:14.181
2.5450472831726074,1.7580680847167969,1.7738779783248901,0.79377281665802,-0.008460990153253078,6.231391906738281,2024-06-17T22:12:14.201
0.8588858246803284,1.0324602127075195,1.2681241035461426,-0.6467241644859314,0.9610402584075928,5.1038665771484375,2024-06-17T22:12:14.221
0.36732277274131775,0.8329581022262573,0.03574472665786743,-0.768032431602478,2.0207741260528564,4.399128437042236,2024-06-17T22:12:14.241
0.16754448413848877,0.8307827115058899,-0.4951706826686859,-0.213270366191864,2.438714027404785,4.287210941314697,2024-06-17T22:12:14.261
-0.18950003385543823,0.6133939623832703,-0.2769429087638855,-0.2254556566476822,2.6274354457855225,3.8677873611450195,2024-06-17T22:12:14.281
-0.5735459327697754,0.2616666555404663,-0.27712738513946533,-0.5830999612808228,3.2940711975097656,2.9972689151763916,2024-06-17T22:12:14.301
-0.42859911918640137,0.17637532949447632,-0.34391504526138306,-0.8786548972129822,3.727851629257202,2.597289562225342,2024-06-17T22:12:14.321
-0.13734212517738342,0.19066864252090454,-0.3334745168685913,-0.8438982963562012,3.065870523452759,2.806424379348755,2024-06-17T22:12:14.341
-0.26029494404792786,0.09405010938644409,-0.6106674075126648,-0.5447471737861633,2.6122686862945557,2.81301212310791,2024-06-17T22:12:14.361
-0.4323298931121826,-0.04805278778076172,-0.6806470155715942,-0.5088346600532532,2.9417476654052734,2.488962411880493,2024-06-17T22:12:14.381
-0.5266615748405457,-0.14387089014053345,-0.6086532473564148,-0.6027371883392334,3.255171775817871,2.058962821960449,2024-06-17T22:12:14.401
-0.3518429398536682,-0.012580156326293945,-0.5192445516586304,-0.5922598838806152,3.011201858520508,2.015934705734253,2024-06-17T22:12:14.421
-0.28389984369277954,0.10646343231201172,-0.5507146716117859,-0.1739858090877533,2.214533805847168,2.1544418334960938,2024-06-17T22:12:14.441
-0.41468533873558044,0.10026037693023682,-0.5448005199432373,0.04423598200082779,1.9475510120391846,2.0463645458221436,2024-06-17T22:12:14.461
-0.5537642240524292,0.020003974437713623,-0.3495337963104248,-0.04428403079509735,1.6659759283065796,1.6550661325454712,2024-06-17T22:12:14.481
-0.6180374622344971,0.05946469306945801,-0.31808584928512573,-0.06403161585330963,1.2870898246765137,1.2909008264541626,2024-06-17T22:12:14.500
-0.7050628662109375,0.09655183553695679,-0.3588404655456543,0.12760089337825775,1.171274185180664,0.9730399250984192,2024-06-17T22:12:14.520
-0.6841411590576172,0.2186160683631897,-0.28800302743911743,0.09340693801641464,1.6849331855773926,0.8528451323509216,2024-06-17T22:12:14.540
-0.7076056599617004,0.2162492275238037,-0.03096407651901245,-0.11261669546365738,1.4734904766082764,0.6572797298431396,2024-06-17T22:12:14.560
-0.741300106048584,0.2672737240791321,-0.033013999462127686,-0.18362365663051605,0.8165464401245117,0.472394198179245,2024-06-17T22:12:14.580
-0.789683997631073,0.3166348338127136,-0.1601300835609436,-0.26970043778419495,0.8488839268684387,0.32124486565589905,2024-06-17T22:12:14.600
-0.7841079235076904,0.38851791620254517,-0.20960545539855957,-0.43288344144821167,1.1383190155029297,0.2526948153972626,2024-06-17T22:12:14.620
-0.8048088550567627,0.43291759490966797,-0.2708885073661804,-0.19530993700027466,0.7278444170951843,0.30493199825286865,2024-06-17T22:12:14.640
-0.8908400535583496,0.46860623359680176,-0.321341872215271,0.11769518256187439,0.03894200921058655,0.4005642235279083,2024-06-17T22:12:14.660
-1.130213975906372,0.48537391424179077,-0.32553327083587646,0.15753549337387085,-0.25346139073371887,0.3766964077949524,2024-06-17T22:12:14.680
-1.4285552501678467,0.4225003123283386,-0.44680941104888916,0.09755704551935196,-0.07010786980390549,0.03987685963511467,2024-06-17T22:12:14.700
-1.6468557119369507,0.3060152530670166,-0.4872433543205261,-0.05713152140378952,0.10963292419910431,-0.48639798164367676,2024-06-17T22:12:14.720
-1.76779043674469,0.23599344491958618,-0.4679635763168335,-0.17062702775001526,-0.20815542340278625,-1.0748920440673828,2024-06-17T22:12:14.740
-1.7741166353225708,0.20967316627502441,-0.5741180777549744,-0.10744257271289825,-0.7415269613265991,-1.4820281267166138,2024-06-17T22:12:14.760
-1.690879464149475,0.20253193378448486,-0.7359601855278015,0.24926334619522095,-1.6858309507369995,-1.5455412864685059,2024-06-17T22:12:14.780
-1.6078956127166748,0.0765390396118164,-1.0146400928497314,1.286726951599121,-4.205934047698975,-1.115441083908081,2024-06-17T22:12:14.800
-1.871931791305542,-0.12414157390594482,-1.3693197965621948,2.5991599559783936,-6.968210220336914,-0.945888876914978,2024-06-17T22:12:14.820
-2.333850383758545,-0.2536815404891968,-1.1701717376708984,2.4896883964538574,-7.759655475616455,-1.6933664083480835,2024-06-17T22:12:14.840
-2.8109781742095947,-0.3175863027572632,-0.7989290356636047,0.7821285724639893,-6.658681392669678,-3.826408624649048,2024-06-17T22:12:14.860
-2.6966376304626465,0.20386862754821777,-0.9309213161468506,-0.6154869794845581,-5.553122043609619,-6.078713893890381,2024-06-17T22:12:14.880
-1.9984074831008911,1.1123392581939697,-1.3023921251296997,-1.0666065216064453,-5.381771087646484,-8.12822151184082,2024-06-17T22:12:14.900
-0.8055086135864258,2.1819775104522705,-1.8989120721817017,-1.0448194742202759,-4.097081184387207,-9.691858291625977,2024-06-17T22:12:14.920
1.0158778429031372,3.2546815872192383,-2.3075308799743652,-0.5261304974555969,-1.243060827255249,-10.285157203674316,2024-06-17T22:12:14.940
3.7246673107147217,4.038421630859375,-1.505096435546875,-0.26143497228622437,0.3446926176548004,-8.348538398742676,2024-06-17T22:12:14.960
6.399196624755859,4.044349670410156,-0.8644716143608093,0.7199409008026123,-0.9251291751861572,-3.192012071609497,2024-06-17T22:12:14.980
6.98591947555542,3.525376319885254,-0.6826004981994629,1.7464340925216675,-1.268510103225708,2.3543765544891357,2024-06-17T22:12:15.000
5.0304107666015625,2.520214080810547,0.38227584958076477,1.5193684101104736,-0.877777636051178,5.317816257476807,2024-06-17T22:12:15.020
2.7850561141967773,1.925316333770752,0.7330678105354309,1.151110053062439,-0.2707654535770416,6.297385215759277,2024-06-17T22:12:15.040
1.0099543333053589,1.2264832258224487,0.8934897184371948,0.7356249690055847,-0.21869125962257385,5.701221942901611,2024-06-17T22:12:15.060
0.004560030996799469,0.7311872243881226,0.6381087303161621,0.10133152455091476,0.6526930928230286,4.356197834014893,2024-06-17T22:12:15.080
-0.350279837846756,0.6054137945175171,0.14120540022850037,-0.08288092166185379,1.7169933319091797,3.1074202060699463,2024-06-17T22:12:15.100
-0.26996374130249023,0.554434597492218,-0.0065042972564697266,-0.14639079570770264,2.312066078186035,2.4544906616210938,2024-06-17T22:12:15.120
-0.16004356741905212,0.451044499874115,0.007833480834960938,-0.14931659400463104,2.120763063430786,2.100379228591919,2024-06-17T22:12:15.139
-0.22639797627925873,0.20943164825439453,0.11332929134368896,-0.47724875807762146,1.9948359727859497,1.501379132270813,2024-06-17T22:12:15.160
-0.30628231167793274,0.01694655418395996,-0.13237887620925903,-0.95743727684021,2.6594748497009277,0.8269676566123962,2024-06-17T22:12:15.179
0.0518033504486084,0.07106053829193115,-0.3747478723526001,-1.1196845769882202,3.063774585723877,0.836331307888031,2024-06-17T22:12:15.200
0.401845782995224,0.1363208293914795,-0.5115505456924438,-0.7818214893341064,2.3318331241607666,1.4325708150863647,2024-06-17T22:12:15.219
0.18342742323875427,0.03407442569732666,-0.7441667914390564,-0.21719950437545776,1.618641972541809,1.7363009452819824,2024-06-17T22:12:15.239
-0.13891908526420593,-0.12265557050704956,-0.6970651745796204,-0.1414116472005844,1.7684799432754517,1.4883077144622803,2024-06-17T22:12:15.259
-0.32945331931114197,-0.19658583402633667,-0.5716927647590637,-0.4936967194080353,2.4397873878479004,1.04246187210083,2024-06-17T22:12:15.279
-0.22884026169776917,-0.12884020805358887,-0.4585023522377014,-0.734636127948761,2.6098172664642334,0.8046966195106506,2024-06-17T22:12:15.299
-0.2235967218875885,-0.08998686075210571,-0.38551944494247437,-0.8166710734367371,2.2658348083496094,0.6087480783462524,2024-06-17T22:12:15.319
-0.2545064091682434,-0.014619231224060059,-0.3163394331932068,-1.0039705038070679,2.057435989379883,0.49389877915382385,2024-06-17T22:12:15.339
-0.12476860731840134,0.18593937158584595,-0.4091319441795349,-1.1088292598724365,1.9899287223815918,0.8067108392715454,2024-06-17T22:12:15.359
-0.1410990059375763,0.22284787893295288,-0.648635983467102,-0.5226553082466125,1.334416151046753,1.1503697633743286,2024-06-17T22:12:15.379
-0.34258317947387695,0.19447457790374756,-0.5424308776855469,-0.23417915403842926,1.1485066413879395,1.253912091255188,2024-06-17T22:12:15.399
-0.48851680755615234,0.20198887586593628,-0.26511919498443604,-0.6151089668273926,1.5820461511611938,1.2312904596328735,2024-06-17T22:12:15.419
-0.5522058606147766,0.24060672521591187,-0.10026276111602783,-0.9854751825332642,1.6166526079177856,1.2849817276000977,2024-06-17T22:12:15.439
-0.5735809803009033,0.27885377407073975,-0.11376702785491943,-0.7916679978370667,0.8599308729171753,1.5108678340911865,2024-06-17T22:12:15.459
-0.7797514200210571,0.27346301078796387,-0.20072287321090698,-0.3867757022380829,0.3243880569934845,1.6658378839492798,2024-06-17T22:12:15.479
-1.0234733819961548,0.29444557428359985,-0.27612918615341187,0.08536776155233383,0.13003544509410858,1.7575267553329468,2024-06-17T22:12:15.499
-1.4110897779464722,0.23033535480499268,-0.2502405643463135,0.5411996841430664,-0.2700784206390381,1.4497014284133911,2024-06-17T22:12:15.519
-1.6578772068023682,0.17428523302078247,-0.026415526866912842,0.4242679476737976,-0.3816947638988495,1.0119065046310425,2024-06-17T22:12:15.539
-1.8650254011154175,0.16044294834136963,0.016086459159851074,0.11455417424440384,-0.07751450687646866,0.504185140132904,2024-06-17T22:12:15.559
-1.9914546012878418,0.14509856700897217,-0.09416007995605469,-0.061744268983602524,0.14847788214683533,-0.08609024435281754,2024-06-17T22:12:15.579
-2.0613927841186523,0.22927242517471313,0.00879746675491333,-0.43893924355506897,-0.48370084166526794,-0.729374349117279,2024-06-17T22:12:15.599
-2.087608575820923,0.3078216314315796,-0.13526201248168945,-0.8137838244438171,-0.9722903370857239,-1.4200390577316284,2024-06-17T22:12:15.619
-1.9562859535217285,0.36226826906204224,-0.40972429513931274,-1.0146076679229736,-1.0907485485076904,-1.974914312362671,2024-06-17T22:12:15.639
-1.6028717756271362,0.4442065358161926,-0.4914442300796509,-0.8455237746238708,-1.9582254886627197,-2.0742554664611816,2024-06-17T22:12:15.658
-1.5373454093933105,0.2573869824409485,-0.7268823385238647,-0.02892378717660904,-3.7020187377929688,-2.0474233627319336,2024-06-17T22:12:15.678
-1.5767983198165894,0.06452232599258423,-0.8597939014434814,1.576957106590271,-6.384544372558594,-1.5792841911315918,2024-06-17T22:12:15.699
-2.4751038551330566,-0.19652855396270752,-0.7315933704376221,2.5219364166259766,-8.181597709655762,-2.3367133140563965,2024-06-17T22:12:15.719
-3.0674047470092773,-0.3489950895309448,1.0877691507339478,-0.8606538772583008,-8.162633895874023,-4.444909572601318,2024-06-17T22:12:15.739
-3.4216084480285645,0.4377397298812866,1.2275476455688477,-4.459269046783447,-7.585284233093262,-7.267646312713623,2024-06-17T22:12:15.759
-3.128139019012451,1.8000476360321045,-0.4709266424179077,-5.661737442016602,-6.871074676513672,-9.957803726196289,2024-06-17T22:12:15.778
-1.5524259805679321,3.513772964477539,-2.6187050342559814,-4.50827169418335,-4.947714805603027,-10.693668365478516,2024-06-17T22:12:15.798
0.7648621201515198,4.519026279449463,-3.424839973449707,-3.3749403953552246,-2.59597110748291,-9.5862455368042,2024-06-17T22:12:15.818
3.036107301712036,4.542751312255859,-3.9277660846710205,-2.188800573348999,-0.8378213047981262,-7.628613471984863,2024-06-17T22:12:15.838
5.780502796173096,4.614383220672607,-4.845721244812012,0.6624945998191833,1.781497597694397,-2.877964973449707,2024-06-17T22:12:15.858
6.643197536468506,3.883435010910034,-3.4977831840515137,3.448723554611206,1.8826135396957397,2.6338722705841064,2024-06-17T22:12:15.878
5.104979991912842,3.36232328414917,-0.9119687080383301,4.0776143074035645,1.1191502809524536,6.2427592277526855,2024-06-17T22:12:15.898
2.873868465423584,2.5541210174560547,0.7329668402671814,2.901561975479126,0.6537579298019409,7.179554462432861,2024-06-17T22:12:15.918
1.219406008720398,1.8344295024871826,0.6899961829185486,1.5449931621551514,1.397961139678955,6.689235210418701,2024-06-17T22:12:15.938
0.2513881027698517,1.316493272781372,-0.20067262649536133,1.5112433433532715,2.3407821655273438,5.917261123657227,2024-06-17T22:12:15.958
-0.46448713541030884,0.9075208902359009,-0.3979213833808899,1.6422642469406128,2.9312918186187744,4.909628391265869,2024-06-17T22:12:15.978
-0.9636744260787964,0.5518788695335388,-0.03299039602279663,0.9028778672218323,3.7681450843811035,3.6729800701141357,2024-06-17T22:12:15.998
-0.9937866926193237,0.3404444456100464,0.12896031141281128,0.24220840632915497,4.017423629760742,2.8216588497161865,2024-06-17T22:12:16.018
-0.840835690498352,0.23415607213974,0.07092273235321045,0.12220589816570282,3.3254945278167725,2.4377756118774414,2024-06-17T22:12:16.038
-0.7235939502716064,0.20212262868881226,-0.06591975688934326,0.11689948290586472,3.1339783668518066,2.21189284324646,2024-06-17T22:12:16.058
-0.7384893894195557,0.06889194250106812,-0.26745176315307617,0.02521481364965439,3.45125675201416,1.8751749992370605,2024-06-17T22:12:16.078
-0.8056132793426514,-0.17908889055252075,-0.1547698974609375,-0.48871910572052,3.8942556381225586,1.3638734817504883,2024-06-17T22:12:16.098
-0.5686269998550415,-0.23495370149612427,-0.0418773889541626,-0.8974763751029968,3.4623372554779053,1.09688401222229,2024-06-17T22:12:16.118
-0.2989298701286316,-0.0752139687538147,-0.19537532329559326,-0.6988567113876343,2.207430362701416,1.2405837774276733,2024-06-17T22:12:16.138
-0.35055941343307495,0.013908803462982178,-0.6704228520393372,0.06300358474254608,1.4999260902404785,1.4236329793930054,2024-06-17T22:12:16.158
-0.593167245388031,-0.03712296485900879,-0.7370660901069641,0.4384218156337738,1.808932900428772,1.358553171157837,2024-06-17T22:12:16.178
-0.6850011348724365,-0.07965654134750366,-0.5086609125137329,0.46176671981811523,1.882315754890442,1.0263071060180664,2024-06-17T22:12:16.198
-0.5642139911651611,-0.00743412971496582,-0.24334579706192017,0.19527937471866608,1.7400294542312622,0.7617839574813843,2024-06-17T22:12:16.218
-0.4502542018890381,0.03386789560317993,-0.007028460502624512,-0.2934960722923279,1.5435765981674194,0.5788466930389404,2024-06-17T22:12:16.237
-0.4608319401741028,0.03395795822143555,0.08894288539886475,-0.7056824564933777,1.1606948375701904,0.3112673759460449,2024-06-17T22:12:16.257
-0.4042913615703583,0.16515475511550903,0.04864692687988281,-0.9245309829711914,0.7640653252601624,0.26845839619636536,2024-06-17T22:12:16.277
-0.38389861583709717,0.3281175494194031,-0.04615175724029541,-0.8803086876869202,0.5299621224403381,0.5843890905380249,2024-06-17T22:12:16.297
-0.4836450219154358,0.3465304970741272,-0.20333045721054077,-0.3695603907108307,0.24943047761917114,0.9609456062316895,2024-06-17T22:12:16.317
-0.650909960269928,0.34427356719970703,-0.3599526882171631,0.3709265887737274,0.19474351406097412,1.2704079151153564,2024-06-17T22:12:16.337
-0.8385549783706665,0.2680581212043762,-0.22785091400146484,0.84559565782547,0.08733636140823364,1.37460196018219,2024-06-17T22:12:16.357
-1.033170461654663,0.22150957584381104,-0.057689368724823,1.0314687490463257,-0.05779191479086876,1.2395548820495605,2024-06-17T22:12:16.377
-1.1709457635879517,0.19279658794403076,0.08032345771789551,0.9563379287719727,-0.06586664915084839,0.9745813608169556,2024-06-17T22:12:16.397
-1.3171665668487549,0.13012176752090454,0.13983356952667236,0.7318698167800903,0.08699751645326614,0.561217188835144,2024-06-17T22:12:16.417
-1.400400161743164,0.10105472803115845,0.22518742084503174,0.3922789990901947,0.17511607706546783,0.08864308893680573,2024-06-17T22:12:16.437
-1.3173803091049194,0.11756318807601929,0.29291456937789917,0.10240494459867477,-0.14814038574695587,-0.2602725923061371,2024-06-17T22:12:16.457
-1.2175953388214111,0.18363887071609497,0.2793177366256714,-0.15319207310676575,-0.5108051896095276,-0.43713703751564026,2024-06-17T22:12:16.477
-1.1284685134887695,0.23965412378311157,0.18493986129760742,-0.24213500320911407,-0.9777474999427795,-0.49339932203292847,2024-06-17T22:12:16.497
-1.1089726686477661,0.2843766212463379,0.10330015420913696,-0.3267112970352173,-1.5064148902893066,-0.5526183843612671,2024-06-17T22:12:16.517
-1.036360263824463,0.31845879554748535,0.005786776542663574,-0.3701900243759155,-2.1261916160583496,-0.5269901752471924,2024-06-17T22:12:16.537
-0.9577142596244812,0.3819524645805359,-0.10349118709564209,-0.42100095748901367,-2.642760992050171,-0.31329846382141113,2024-06-17T22:12:16.557
-0.9980790019035339,0.3961343765258789,-0.14554697275161743,-0.640866219997406,-3.099550724029541,-0.23520809412002563,2024-06-17T22:12:16.577
-1.2087140083312988,0.2238854169845581,-0.14200520515441895,-0.9333257675170898,-3.6894681453704834,-0.4903947412967682,2024-06-17T22:12:16.597
-1.461658000946045,0.0398598313331604,-0.23262184858322144,-1.0026841163635254,-4.142226219177246,-0.9823067784309387,2024-06-17T22:12:16.617
-1.7116544246673584,-0.07064372301101685,-0.16878753900527954,-0.7574756145477295,-5.091994285583496,-1.58210289478302,2024-06-17T22:12:16.637
-1.9927400350570679,0.16172152757644653,0.07289445400238037,-0.4190024733543396,-6.627196788787842,-2.1436564922332764,2024-06-17T22:12:16.657
-2.421631336212158,0.4562453627586365,0.8815434575080872,-1.4672131538391113,-8.436553955078125,-3.5178582668304443,2024-06-17T22:12:16.677
-3.1080169677734375,0.6084753274917603,1.9137625694274902,-6.473641395568848,-7.925269603729248,-7.260294437408447,2024-06-17T22:12:16.697
-3.037562608718872,2.130077362060547,0.08196961879730225,-11.061796188354492,-3.0721523761749268,-12.086090087890625,2024-06-17T22:12:16.717
0.2470093071460724,5.329164028167725,-5.619158744812012,-7.368760585784912,3.0960021018981934,-12.475153923034668,2024-06-17T22:12:16.737
5.99884557723999,5.982029914855957,-8.25269889831543,0.8252099752426147,5.629716396331787,-5.5923686027526855,2024-06-17T22:12:16.757
7.182168006896973,4.159839153289795,-3.8766584396362305,4.286045074462891,3.717526435852051,0.9907078146934509,2024-06-17T22:12:16.777
5.160513401031494,2.6533474922180176,-0.2199997901916504,4.372369766235352,1.3003387451171875,4.588971138000488,2024-06-17T22:12:16.797
2.6544435024261475,1.7153658866882324,1.0227558612823486,3.318103313446045,0.3963331878185272,5.4006500244140625,2024-06-17T22:12:16.816
0.7837546467781067,0.9892497658729553,0.8961514234542847,2.0644824504852295,1.266836404800415,4.47363805770874,2024-06-17T22:12:16.836
-0.16077326238155365,0.5857119560241699,0.35237404704093933,1.1817011833190918,3.009690999984741,3.0977842807769775,2024-06-17T22:12:16.856
-0.4195229709148407,0.2975304126739502,0.25274020433425903,0.6041958928108215,3.9762074947357178,2.0892579555511475,2024-06-17T22:12:16.876
-0.33099934458732605,0.2034350037574768,0.39143288135528564,0.21732892096042633,3.8032286167144775,1.6212400197982788,2024-06-17T22:12:16.896
-0.199040025472641,0.18131166696548462,0.4039449691772461,-0.044140949845314026,3.099313974380493,1.4595352411270142,2024-06-17T22:12:16.916
-0.18075613677501678,0.16477733850479126,0.18407756090164185,-0.3193280100822449,2.9480535984039307,1.3409479856491089,2024-06-17T22:12:16.936
-0.22065120935440063,0.06661427021026611,-0.08761775493621826,-0.4866773784160614,3.1558403968811035,1.1650230884552002,2024-06-17T22:12:16.956
-0.06184212490916252,0.023639798164367676,-0.30350247025489807,-0.4626753032207489,3.364792823791504,1.189724326133728,2024-06-17T22:12:16.976
-0.016988908872008324,-0.11504185199737549,-0.15926426649093628,-0.6908201575279236,3.3577382564544678,1.2466270923614502,2024-06-17T22:12:16.996
0.11564750969409943,-0.1099204421043396,-0.18129867315292358,-0.7132450938224792,2.6869688034057617,1.6100046634674072,2024-06-17T22:12:17.016
0.14650210738182068,-0.010804831981658936,-0.46014851331710815,-0.18800145387649536,1.5981218814849854,2.091848134994507,2024-06-17T22:12:17.036
-0.13589586317539215,0.053969502449035645,-0.8206658959388733,0.32619866728782654,1.6441047191619873,2.178574800491333,2024-06-17T22:12:17.056
-0.375100314617157,0.026715457439422607,-0.6840835213661194,0.2516586482524872,2.296225070953369,1.9696087837219238,2024-06-17T22:12:17.076
-0.47293755412101746,0.03293412923812866,-0.5230652093887329,0.19539283215999603,2.5467028617858887,1.7565292119979858,2024-06-17T22:12:17.096
-0.4789906442165375,0.05043196678161621,-0.2825809717178345,0.14059984683990479,2.1640994548797607,1.6331617832183838,2024-06-17T22:12:17.116
-0.5207416415214539,0.07947182655334473,-0.11290478706359863,0.027734335511922836,1.6307872533798218,1.4551178216934204,2024-06-17T22:12:17.136
-0.6502845883369446,0.09790825843811035,-0.07825207710266113,-0.1410665065050125,1.4820750951766968,1.1787611246109009,2024-06-17T22:12:17.156
-0.6745079755783081,0.18231332302093506,-0.10375475883483887,-0.26307711005210876,1.5717322826385498,1.0935946702957153,2024-06-17T22:12:17.176
-0.7432399392127991,0.2135031819343567,-0.17477715015411377,-0.074723020195961,1.3417466878890991,1.049803376197815,2024-06-17T22:12:17.196
